%time,field.header.seq,field.header.stamp,field.header.frame_id,field.orientation.x,field.orientation.y,field.orientation.z,field.orientation.w,field.orientation_covariance0,field.orientation_covariance1,field.orientation_covariance2,field.orientation_covariance3,field.orientation_covariance4,field.orientation_covariance5,field.orientation_covariance6,field.orientation_covariance7,field.orientation_covariance8,field.angular_velocity.x,field.angular_velocity.y,field.angular_velocity.z,field.angular_velocity_covariance0,field.angular_velocity_covariance1,field.angular_velocity_covariance2,field.angular_velocity_covariance3,field.angular_velocity_covariance4,field.angular_velocity_covariance5,field.angular_velocity_covariance6,field.angular_velocity_covariance7,field.angular_velocity_covariance8,field.linear_acceleration.x,field.linear_acceleration.y,field.linear_acceleration.z,field.linear_acceleration_covariance0,field.linear_acceleration_covariance1,field.linear_acceleration_covariance2,field.linear_acceleration_covariance3,field.linear_acceleration_covariance4,field.linear_acceleration_covariance5,field.linear_acceleration_covariance6,field.linear_acceleration_covariance7,field.linear_acceleration_covariance8
1765344892814915989,51659,1765344892806958463,imu_link,-0.00341791945740248,0.008517714477754108,0.9904735577725806,-0.1373968621184063,0.010000000000000002,0.0,0.0,0.0,0.010000000000000002,0.0,0.0,0.0,0.010000000000000002,0.0,0.0,0.0,0.02,0.0,0.0,0.0,0.02,0.0,0.0,0.0,0.02,-0.003,0.003,1.0,0.04,0.0,0.0,0.0,0.04,0.0,0.0,0.0,0.01
1765344892887813927,51660,1765344892886610081,imu_link,-0.0007227848059037213,-0.0031266708274663617,0.9905124898376733,-0.13738525753236555,0.010000000000000002,0.0,0.0,0.0,0.010000000000000002,0.0,0.0,0.0,0.010000000000000002,0.0,0.0,0.0,0.02,0.0,0.0,0.0,0.02,0.0,0.0,0.0,0.02,-0.003,0.002,1.0,0.04,0.0,0.0,0.0,0.04,0.0,0.0,0.0,0.01
1765344892969191594,51661,1765344892966891141,imu_link,-0.006801964508713359,0.007270977325953343,0.9904648479124507,-0.13740542644784265,0.010000000000000002,0.0,0.0,0.0,0.010000000000000002,0.0,0.0,0.0,0.010000000000000002,0.0,0.0,0.0,0.02,0.0,0.0,0.0,0.02,0.0,0.0,0.0,0.02,-0.006,0.003,1.0030000000000001,0.04,0.0,0.0,0.0,0.04,0.0,0.0,0.0,0.01
1765344893045681413,51662,1765344893046230278,imu_link,-0.0020179165569729047,-0.0036251743086310475,0.9905108245205386,-0.13737209553487875,0.010000000000000002,0.0,0.0,0.0,0.010000000000000002,0.0,0.0,0.0,0.010000000000000002,0.0,0.0,0.0,0.02,0.0,0.0,0.0,0.02,0.0,0.0,0.0,0.02,-0.008,0.004,1.0030000000000001,0.04,0.0,0.0,0.0,0.04,0.0,0.0,0.0,0.01
1765344893127544852,51663,1765344893115302393,imu_link,-0.004632355018773998,0.0063558478417550576,0.9904846042392378,-0.13739866538737866,0.010000000000000002,0.0,0.0,0.0,0.010000000000000002,0.0,0.0,0.0,0.010000000000000002,-0.0017453292519943296,0.0,0.0,0.02,0.0,0.0,0.0,0.02,0.0,0.0,0.0,0.02,-0.006,0.002,1.0010000000000001,0.04,0.0,0.0,0.0,0.04,0.0,0.0,0.0,0.01
1765344893199020475,51664,1765344893194303381,imu_link,0.0009894619443018367,-0.00407517383179659,0.990508259162263,-0.13738923704076814,0.010000000000000002,0.0,0.0,0.0,0.010000000000000002,0.0,0.0,0.0,0.010000000000000002,0.0,0.0,0.0,0.02,0.0,0.0,0.0,0.02,0.0,0.0,0.0,0.02,-0.003,0.002,0.998,0.04,0.0,0.0,0.0,0.04,0.0,0.0,0.0,0.01
1765344893275019784,51665,1765344893273957869,imu_link,-0.006533162579687664,0.005212572523919326,0.9904794234016624,-0.13740690918691323,0.010000000000000002,0.0,0.0,0.0,0.010000000000000002,0.0,0.0,0.0,0.010000000000000002,0.0,0.0,0.0,0.02,0.0,0.0,0.0,0.02,0.0,0.0,0.0,0.02,-0.006,0.003,1.002,0.04,0.0,0.0,0.0,0.04,0.0,0.0,0.0,0.01
1765344893354762917,51666,1765344893352442433,imu_link,-0.0014929082813297204,-0.0054362831783581105,0.9905042278308152,-0.13736663604874563,0.010000000000000002,0.0,0.0,0.0,0.010000000000000002,0.0,0.0,0.0,0.010000000000000002,0.0,0.0,0.0,0.02,0.0,0.0,0.0,0.02,0.0,0.0,0.0,0.02,-0.008,0.001,1.0010000000000001,0.04,0.0,0.0,0.0,0.04,0.0,0.0,0.0,0.01
1765344893435343875,51667,1765344893432826993,imu_link,-0.005368620956919143,0.005991746513386688,0.9904826742541908,-0.13740214294182795,0.010000000000000002,0.0,0.0,0.0,0.010000000000000002,0.0,0.0,0.0,0.010000000000000002,0.0,0.0,0.0,0.02,0.0,0.0,0.0,0.02,0.0,0.0,0.0,0.02,-0.007,0.003,1.002,0.04,0.0,0.0,0.0,0.04,0.0,0.0,0.0,0.01
1765344893583209530,51668,1765344893512044074,imu_link,0.0005486610440786406,-0.004318028053143838,0.9905080795038904,-0.13738558163906964,0.010000000000000002,0.0,0.0,0.0,0.010000000000000002,0.0,0.0,0.0,0.010000000000000002,0.0,0.0,0.0,0.02,0.0,0.0,0.0,0.02,0.0,0.0,0.0,0.02,-0.004,0.001,1.0,0.04,0.0,0.0,0.0,0.04,0.0,0.0,0.0,0.01
1765344893595884686,51669,1765344893592955967,imu_link,-0.006733616549584312,0.005392453299585637,0.9904770164553267,-0.1374076407239776,0.010000000000000002,0.0,0.0,0.0,0.010000000000000002,0.0,0.0,0.0,0.010000000000000002,0.0,0.0,0.0,0.02,0.0,0.0,0.0,0.02,0.0,0.0,0.0,0.02,-0.006,0.002,0.998,0.04,0.0,0.0,0.0,0.04,0.0,0.0,0.0,0.01
1765344893679536187,51670,1765344893671820086,imu_link,-0.0018228365744976682,-0.005370935400761173,0.9905042613868926,-0.13736498278000117,0.010000000000000002,0.0,0.0,0.0,0.010000000000000002,0.0,0.0,0.0,0.010000000000000002,0.0,0.0,0.0,0.02,0.0,0.0,0.0,0.02,0.0,0.0,0.0,0.02,-0.009000000000000001,0.003,1.002,0.04,0.0,0.0,0.0,0.04,0.0,0.0,0.0,0.01
1765344893751631074,51671,1765344893751820758,imu_link,-0.003403131001115741,0.006526732440565361,0.9904892149525815,-0.13739336055886234,0.010000000000000002,0.0,0.0,0.0,0.010000000000000002,0.0,0.0,0.0,0.010000000000000002,0.0,0.0,0.0,0.02,0.0,0.0,0.0,0.02,0.0,0.0,0.0,0.02,-0.005,0.002,1.0,0.04,0.0,0.0,0.0,0.04,0.0,0.0,0.0,0.01
1765344893842213448,51672,1765344893831968227,imu_link,-0.00065947481749817,-0.005198008571799433,0.9905056061046502,-0.13737245020422348,0.010000000000000002,0.0,0.0,0.0,0.010000000000000002,0.0,0.0,0.0,0.010000000000000002,0.0,-0.0017453292519943296,0.0,0.02,0.0,0.0,0.0,0.02,0.0,0.0,0.0,0.02,-0.004,0.003,1.0010000000000001,0.04,0.0,0.0,0.0,0.04,0.0,0.0,0.0,0.01
1765344893912349507,51673,1765344893911079696,imu_link,-0.0025595385344420922,0.006517886374301273,0.9904924998860745,-0.13738840412908607,0.010000000000000002,0.0,0.0,0.0,0.010000000000000002,0.0,0.0,0.0,0.010000000000000002,0.0,0.0,0.0,0.02,0.0,0.0,0.0,0.02,0.0,0.0,0.0,0.02,-0.003,0.002,0.999,0.04,0.0,0.0,0.0,0.04,0.0,0.0,0.0,0.01
1765344893995863477,51674,1765344893990973017,imu_link,-0.003922642582033651,-0.005402717432123173,0.9905001196248889,-0.13734968708593123,0.010000000000000002,0.0,0.0,0.0,0.010000000000000002,0.0,0.0,0.0,0.010000000000000002,0.0,0.0,0.0,0.02,0.0,0.0,0.0,0.02,0.0,0.0,0.0,0.02,-0.006,0.003,1.002,0.04,0.0,0.0,0.0,0.04,0.0,0.0,0.0,0.01
1765344894073168344,51675,1765344894070588727,imu_link,-0.0025657268018514146,0.0064637761852164195,0.9904928566474873,-0.1373882730574396,0.010000000000000002,0.0,0.0,0.0,0.010000000000000002,0.0,0.0,0.0,0.010000000000000002,0.0,0.0,0.0,0.02,0.0,0.0,0.0,0.02,0.0,0.0,0.0,0.02,-0.006,0.003,1.002,0.04,0.0,0.0,0.0,0.04,0.0,0.0,0.0,0.01
1765344894160002078,51676,1765344894150419066,imu_link,0.0005950708819250025,-0.005102108904860524,0.9905051408855008,-0.13737969374970543,0.010000000000000002,0.0,0.0,0.0,0.010000000000000002,0.0,0.0,0.0,0.010000000000000002,0.0,-0.0017453292519943296,0.0,0.02,0.0,0.0,0.0,0.02,0.0,0.0,0.0,0.02,-0.002,0.003,1.0,0.04,0.0,0.0,0.0,0.04,0.0,0.0,0.0,0.01
1765344894255899896,51677,1765344894230836349,imu_link,-0.004285473546517109,0.005943746912573503,0.990489098056906,-0.13739597235559153,0.010000000000000002,0.0,0.0,0.0,0.010000000000000002,0.0,0.0,0.0,0.010000000000000002,0.0,0.0,0.0,0.02,0.0,0.0,0.0,0.02,0.0,0.0,0.0,0.02,-0.004,0.003,0.999,0.04,0.0,0.0,0.0,0.04,0.0,0.0,0.0,0.01
1765344894456418207,51678,1765344894310969003,imu_link,0.0005768662822542754,-0.005052177416842482,0.9905053880287541,-0.13737983481810065,0.010000000000000002,0.0,0.0,0.0,0.010000000000000002,0.0,0.0,0.0,0.010000000000000002,0.0,0.0,0.0,0.02,0.0,0.0,0.0,0.02,0.0,0.0,0.0,0.02,-0.004,0.003,1.0,0.04,0.0,0.0,0.0,0.04,0.0,0.0,0.0,0.01
1765344894599117235,51679,1765344894379308101,imu_link,-0.005591640067734538,0.0031511189632642675,0.9904941595731607,-0.13740496301840982,0.010000000000000002,0.0,0.0,0.0,0.010000000000000002,0.0,0.0,0.0,0.010000000000000002,0.0,0.0,0.0,0.02,0.0,0.0,0.0,0.02,0.0,0.0,0.0,0.02,-0.007,0.002,1.0030000000000001,0.04,0.0,0.0,0.0,0.04,0.0,0.0,0.0,0.01
1765344894599511805,51680,1765344894458307404,imu_link,0.004179745265857863,-0.003665897793298891,0.9905001644511322,-0.13739910896785848,0.010000000000000002,0.0,0.0,0.0,0.010000000000000002,0.0,0.0,0.0,0.010000000000000002,-0.0017453292519943296,0.0,0.0,0.02,0.0,0.0,0.0,0.02,0.0,0.0,0.0,0.02,-0.005,0.003,1.0,0.04,0.0,0.0,0.0,0.04,0.0,0.0,0.0,0.01
1765344894616845192,51681,1765344894537314726,imu_link,-0.005543623326796765,0.0031435501146738856,0.9904943710817683,-0.13740555734183257,0.010000000000000002,0.0,0.0,0.0,0.010000000000000002,0.0,0.0,0.0,0.010000000000000002,0.0,0.0,0.0,0.02,0.0,0.0,0.0,0.02,0.0,0.0,0.0,0.02,-0.005,0.003,1.0,0.04,0.0,0.0,0.0,0.04,0.0,0.0,0.0,0.01
1765344894644652814,51682,1765344894617033973,imu_link,0.005240805955726719,-0.0020694921771765924,0.9904980741511603,-0.13741112130357433,0.010000000000000002,0.0,0.0,0.0,0.010000000000000002,0.0,0.0,0.0,0.010000000000000002,0.0,0.0,0.0,0.02,0.0,0.0,0.0,0.02,0.0,0.0,0.0,0.02,-0.003,0.003,0.999,0.04,0.0,0.0,0.0,0.04,0.0,0.0,0.0,0.01
1765344894714369965,51683,1765344894696076573,imu_link,-0.00615231799283484,0.0012508890568067091,0.9904934282340745,-0.1374167125388781,0.010000000000000002,0.0,0.0,0.0,0.010000000000000002,0.0,0.0,0.0,0.010000000000000002,0.0,0.0,0.0,0.02,0.0,0.0,0.0,0.02,0.0,0.0,0.0,0.02,-0.007,0.002,1.0010000000000001,0.04,0.0,0.0,0.0,0.04,0.0,0.0,0.0,0.01
1765344894896130971,51684,1765344894775966856,imu_link,0.005774694052397313,7.433821084999653e-05,0.9904953755411499,-0.13742473727109059,0.010000000000000002,0.0,0.0,0.0,0.010000000000000002,0.0,0.0,0.0,0.010000000000000002,0.0,0.0,0.0,0.02,0.0,0.0,0.0,0.02,0.0,0.0,0.0,0.02,-0.007,0.003,1.0010000000000001,0.04,0.0,0.0,0.0,0.04,0.0,0.0,0.0,0.01
1765344895109810025,51685,1765344894855967862,imu_link,-0.0061902176452702145,0.0010517553274857496,0.9904932660166637,-0.13741784815619143,0.010000000000000002,0.0,0.0,0.0,0.010000000000000002,0.0,0.0,0.0,0.010000000000000002,0.0,0.0,0.0,0.02,0.0,0.0,0.0,0.02,0.0,0.0,0.0,0.02,-0.004,0.002,0.997,0.04,0.0,0.0,0.0,0.04,0.0,0.0,0.0,0.01
1765344895364460206,51686,1765344894936114645,imu_link,0.0056779798979754255,0.002976583045682147,0.9904890835990691,-0.13744189961116862,0.010000000000000002,0.0,0.0,0.0,0.010000000000000002,0.0,0.0,0.0,0.010000000000000002,0.0,0.0,0.0,0.02,0.0,0.0,0.0,0.02,0.0,0.0,0.0,0.02,-0.002,0.004,1.0,0.04,0.0,0.0,0.0,0.04,0.0,0.0,0.0,0.01
1765344895364482897,51687,1765344895015083819,imu_link,-0.0057135281056010885,-0.0003203815234992655,0.9904953076617685,-0.1374274297667122,0.010000000000000002,0.0,0.0,0.0,0.010000000000000002,0.0,0.0,0.0,0.010000000000000002,0.0,0.0,0.0,0.02,0.0,0.0,0.0,0.02,0.0,0.0,0.0,0.02,-0.004,0.002,1.0,0.04,0.0,0.0,0.0,0.04,0.0,0.0,0.0,0.01
1765344895364552841,51688,1765344895095038825,imu_link,0.005452214092559671,0.0040967419665737335,0.9904855143621049,-0.13744793889172935,0.010000000000000002,0.0,0.0,0.0,0.010000000000000002,0.0,0.0,0.0,0.010000000000000002,0.0,0.0,0.0,0.02,0.0,0.0,0.0,0.02,0.0,0.0,0.0,0.02,-0.007,0.002,1.0010000000000001,0.04,0.0,0.0,0.0,0.04,0.0,0.0,0.0,0.01
1765344895364585407,51689,1765344895175007719,imu_link,-0.0057858856026352405,-0.00014147751544572382,0.9904951112845627,-0.13742611845383476,0.010000000000000002,0.0,0.0,0.0,0.010000000000000002,0.0,0.0,0.0,0.010000000000000002,0.0,0.0,0.0,0.02,0.0,0.0,0.0,0.02,0.0,0.0,0.0,0.02,-0.004,0.003,1.0010000000000001,0.04,0.0,0.0,0.0,0.04,0.0,0.0,0.0,0.01
1765344895379189545,51690,1765344895254986077,imu_link,0.005951295496555409,0.0024118965505872864,0.990489366046111,-0.13743937058395933,0.010000000000000002,0.0,0.0,0.0,0.010000000000000002,0.0,0.0,0.0,0.010000000000000002,-0.0017453292519943296,0.0,0.0,0.02,0.0,0.0,0.0,0.02,0.0,0.0,0.0,0.02,-0.003,0.002,0.999,0.04,0.0,0.0,0.0,0.04,0.0,0.0,0.0,0.01
1765344895379283083,51691,1765344895334973823,imu_link,-0.005781409136489475,-9.968706280377943e-05,0.9904950642965332,-0.13742668218032644,0.010000000000000002,0.0,0.0,0.0,0.010000000000000002,0.0,0.0,0.0,0.010000000000000002,0.0,0.0,0.0,0.02,0.0,0.0,0.0,0.02,0.0,0.0,0.0,0.02,-0.003,0.002,0.998,0.04,0.0,0.0,0.0,0.04,0.0,0.0,0.0,0.01
1765344895416626949,51692,1765344895414145664,imu_link,0.005537052124479336,0.0035534231898053316,0.9904874376724996,-0.13744580768568826,0.010000000000000002,0.0,0.0,0.0,0.010000000000000002,0.0,0.0,0.0,0.010000000000000002,0.0,0.0,0.0,0.02,0.0,0.0,0.0,0.02,0.0,0.0,0.0,0.02,-0.008,0.002,1.002,0.04,0.0,0.0,0.0,0.04,0.0,0.0,0.0,0.01
1765344895504062767,51693,1765344895493941781,imu_link,-0.005757396802210188,-0.0004689311249671579,0.990494804824389,-0.13742879647860326,0.010000000000000002,0.0,0.0,0.0,0.010000000000000002,0.0,0.0,0.0,0.010000000000000002,0.0,0.0,0.0,0.02,0.0,0.0,0.0,0.02,0.0,0.0,0.0,0.02,-0.005,0.002,1.0010000000000001,0.04,0.0,0.0,0.0,0.04,0.0,0.0,0.0,0.01
1765344895576497898,51694,1765344895573981971,imu_link,0.0052814758366331194,0.004297197639918099,0.9904853100809322,-0.13744995678176827,0.010000000000000002,0.0,0.0,0.0,0.010000000000000002,0.0,0.0,0.0,0.010000000000000002,0.0,0.0,0.0,0.02,0.0,0.0,0.0,0.02,0.0,0.0,0.0,0.02,-0.003,0.003,1.0,0.04,0.0,0.0,0.0,0.04,0.0,0.0,0.0,0.01
1765344895662600726,51695,1765344895653586922,imu_link,-0.0058918854941840595,4.6202904225068264e-05,0.9904945900817802,-0.13742543639858318,0.010000000000000002,0.0,0.0,0.0,0.010000000000000002,0.0,0.0,0.0,0.010000000000000002,0.0,0.0,0.0,0.02,0.0,0.0,0.0,0.02,0.0,0.0,0.0,0.02,-0.006,0.003,1.0010000000000001,0.04,0.0,0.0,0.0,0.04,0.0,0.0,0.0,0.01
1765344895733396363,51696,1765344895722317482,imu_link,0.003752054086187519,0.003715336551770821,0.9904949426572149,-0.13744776074902712,0.010000000000000002,0.0,0.0,0.0,0.010000000000000002,0.0,0.0,0.0,0.010000000000000002,0.0,0.0,0.0,0.02,0.0,0.0,0.0,0.02,0.0,0.0,0.0,0.02,-0.006,0.003,1.0010000000000001,0.04,0.0,0.0,0.0,0.04,0.0,0.0,0.0,0.01
1765344895804628088,51697,1765344895801965026,imu_link,-0.007141870190748972,-0.0010484723682827651,0.9904861120710209,-0.13742327383054323,0.010000000000000002,0.0,0.0,0.0,0.010000000000000002,0.0,0.0,0.0,0.010000000000000002,0.0,-0.0017453292519943296,0.0,0.02,0.0,0.0,0.0,0.02,0.0,0.0,0.0,0.02,-0.007,0.002,1.002,0.04,0.0,0.0,0.0,0.04,0.0,0.0,0.0,0.01
1765344895921443376,51698,1765344895880313145,imu_link,0.003674107831529123,0.0035174729812147486,0.9904960458984936,-0.13744712210489501,0.010000000000000002,0.0,0.0,0.0,0.010000000000000002,0.0,0.0,0.0,0.010000000000000002,-0.0017453292519943296,0.0,0.0,0.02,0.0,0.0,0.0,0.02,0.0,0.0,0.0,0.02,-0.003,0.003,0.999,0.04,0.0,0.0,0.0,0.04,0.0,0.0,0.0,0.01
1765344895975334229,51699,1765344895959979559,imu_link,-0.007451068719323312,-0.0008434585363751135,0.9904841867924923,-0.13742214474622472,0.010000000000000002,0.0,0.0,0.0,0.010000000000000002,0.0,0.0,0.0,0.010000000000000002,0.0,0.0,0.0,0.02,0.0,0.0,0.0,0.02,0.0,0.0,0.0,0.02,-0.004,0.003,0.999,0.04,0.0,0.0,0.0,0.04,0.0,0.0,0.0,0.01
1765344896041733305,51700,1765344896039829657,imu_link,0.0037827169892598474,0.003314037822088292,0.9904965540384065,-0.1374455697486643,0.010000000000000002,0.0,0.0,0.0,0.010000000000000002,0.0,0.0,0.0,0.010000000000000002,0.0,0.0,0.0,0.02,0.0,0.0,0.0,0.02,0.0,0.0,0.0,0.02,-0.003,0.003,0.999,0.04,0.0,0.0,0.0,0.04,0.0,0.0,0.0,0.01
1765344896122625865,51701,1765344896119979070,imu_link,-0.007408170278363534,-0.001121552324423125,0.990484067746047,-0.13742333380745247,0.010000000000000002,0.0,0.0,0.0,0.010000000000000002,0.0,0.0,0.0,0.010000000000000002,0.0,0.0,0.0,0.02,0.0,0.0,0.0,0.02,0.0,0.0,0.0,0.02,-0.006,0.002,1.0010000000000001,0.04,0.0,0.0,0.0,0.04,0.0,0.0,0.0,0.01
1765344896199027694,51702,1765344896198974540,imu_link,0.003625079378092462,0.003184184358560633,0.9904975162225058,-0.1374459534745196,0.010000000000000002,0.0,0.0,0.0,0.010000000000000002,0.0,0.0,0.0,0.010000000000000002,-0.0017453292519943296,0.0,0.0,0.02,0.0,0.0,0.0,0.02,0.0,0.0,0.0,0.02,-0.006,0.002,1.0,0.04,0.0,0.0,0.0,0.04,0.0,0.0,0.0,0.01
1765344896284867166,51703,1765344896278787861,imu_link,-0.007573542707105705,-0.0010571396355473464,0.9904828726796869,-0.13742344354166744,0.010000000000000002,0.0,0.0,0.0,0.010000000000000002,0.0,0.0,0.0,0.010000000000000002,0.0,0.0,0.0,0.02,0.0,0.0,0.0,0.02,0.0,0.0,0.0,0.02,-0.002,0.003,0.998,0.04,0.0,0.0,0.0,0.04,0.0,0.0,0.0,0.01
1765344896358868495,51704,1765344896358844292,imu_link,0.003705650810542279,0.0030802353932276876,0.9904976661187885,-0.13744509345635322,0.010000000000000002,0.0,0.0,0.0,0.010000000000000002,0.0,0.0,0.0,0.010000000000000002,0.0,0.0,0.0,0.02,0.0,0.0,0.0,0.02,0.0,0.0,0.0,0.02,-0.006,0.002,1.002,0.04,0.0,0.0,0.0,0.04,0.0,0.0,0.0,0.01
1765344896438825446,51705,1765344896438427595,imu_link,-0.007979191924838267,0.0005448862837097517,0.9904811420306854,-0.13741594840757562,0.010000000000000002,0.0,0.0,0.0,0.010000000000000002,0.0,0.0,0.0,0.010000000000000002,0.0,0.0,0.0,0.02,0.0,0.0,0.0,0.02,0.0,0.0,0.0,0.02,-0.006,0.004,1.002,0.04,0.0,0.0,0.0,0.04,0.0,0.0,0.0,0.01
1765344896523868537,51706,1765344896518234323,imu_link,0.00392315749025137,-0.0008788779547211282,0.9905054861067402,-0.1374144039076607,0.010000000000000002,0.0,0.0,0.0,0.010000000000000002,0.0,0.0,0.0,0.010000000000000002,0.0,0.0,0.0,0.02,0.0,0.0,0.0,0.02,0.0,0.0,0.0,0.02,-0.007,0.001,1.0010000000000001,0.04,0.0,0.0,0.0,0.04,0.0,0.0,0.0,0.01
1765344896601332090,51707,1765344896598039626,imu_link,-0.007124328335731637,0.0037475846119600946,0.9904825577806226,-0.13740270116594006,0.010000000000000002,0.0,0.0,0.0,0.010000000000000002,0.0,0.0,0.0,0.010000000000000002,0.0,0.0,0.0,0.02,0.0,0.0,0.0,0.02,0.0,0.0,0.0,0.02,-0.004,0.004,1.0,0.04,0.0,0.0,0.0,0.04,0.0,0.0,0.0,0.01
1765344896684822892,51708,1765344896677828780,imu_link,0.003920546721264275,-0.0008777839881364221,0.9905054974742848,-0.13741440347320186,0.010000000000000002,0.0,0.0,0.0,0.010000000000000002,0.0,0.0,0.0,0.010000000000000002,0.0,0.0,0.0,0.02,0.0,0.0,0.0,0.02,0.0,0.0,0.0,0.02,-0.004,0.004,1.0,0.04,0.0,0.0,0.0,0.04,0.0,0.0,0.0,0.01
1765344896769428531,51709,1765344896757973674,imu_link,-0.008024562921908016,0.0005504992187035815,0.9904807781940085,-0.13741590653455593,0.010000000000000002,0.0,0.0,0.0,0.010000000000000002,0.0,0.0,0.0,0.010000000000000002,0.0,0.0,0.0,0.02,0.0,0.0,0.0,0.02,0.0,0.0,0.0,0.02,-0.007,0.001,1.002,0.04,0.0,0.0,0.0,0.04,0.0,0.0,0.0,0.01
1765344896844032075,51710,1765344896837456032,imu_link,0.0038519499390489305,0.001676307658429753,0.9905019399416684,-0.13743456423364958,0.010000000000000002,0.0,0.0,0.0,0.010000000000000002,0.0,0.0,0.0,0.010000000000000002,0.0,0.0,0.0,0.02,0.0,0.0,0.0,0.02,0.0,0.0,0.0,0.02,-0.009000000000000001,0.003,1.002,0.04,0.0,0.0,0.0,0.04,0.0,0.0,0.0,0.01
1765344896920935657,51711,1765344896917265335,imu_link,-0.008082654386740731,0.0007091344656174048,0.9904803131601129,-0.13741512678238513,0.010000000000000002,0.0,0.0,0.0,0.010000000000000002,0.0,0.0,0.0,0.010000000000000002,0.0,0.0,0.0,0.02,0.0,0.0,0.0,0.02,0.0,0.0,0.0,0.02,-0.005,0.003,1.0,0.04,0.0,0.0,0.0,0.04,0.0,0.0,0.0,0.01
1765344896991715818,51712,1765344896986986412,imu_link,0.00234230614981207,0.0016072402868658306,0.9905069073521356,-0.13743360894726114,0.010000000000000002,0.0,0.0,0.0,0.010000000000000002,0.0,0.0,0.0,0.010000000000000002,0.0,0.0,0.0,0.02,0.0,0.0,0.0,0.02,0.0,0.0,0.0,0.02,-0.004,0.003,0.999,0.04,0.0,0.0,0.0,0.04,0.0,0.0,0.0,0.01
1765344897068284872,51713,1765344897065324827,imu_link,-0.009352513583979608,0.0004395234915846998,0.990469694749161,-0.1374122305046587,0.010000000000000002,0.0,0.0,0.0,0.010000000000000002,0.0,0.0,0.0,0.010000000000000002,0.0,0.0,0.0,0.02,0.0,0.0,0.0,0.02,0.0,0.0,0.0,0.02,-0.007,0.003,1.002,0.04,0.0,0.0,0.0,0.04,0.0,0.0,0.0,0.01
1765344897231632842,51714,1765344897144987408,imu_link,0.0026074411698683484,0.0005867504146292547,0.9905086619444051,-0.13742433404459717,0.010000000000000002,0.0,0.0,0.0,0.010000000000000002,0.0,0.0,0.0,0.010000000000000002,0.0,0.0,0.0,0.02,0.0,0.0,0.0,0.02,0.0,0.0,0.0,0.02,-0.007,0.002,1.002,0.04,0.0,0.0,0.0,0.04,0.0,0.0,0.0,0.01
1765344897256302753,51715,1765344897223315360,imu_link,-0.009041873772304901,0.0015827638476587525,0.9904811588960953,-0.13734195735148216,0.010000000000000002,0.0,0.0,0.0,0.010000000000000002,0.0,0.0,0.0,0.010000000000000002,0.0,-0.0017453292519943296,-0.0017453292519943296,0.02,0.0,0.0,0.0,0.02,0.0,0.0,0.0,0.02,-0.006,0.003,1.0030000000000001,0.04,0.0,0.0,0.0,0.04,0.0,0.0,0.0,0.01
1765344897303505890,51716,1765344897303476107,imu_link,0.002977092302732165,0.001232555788895834,0.9905155707696783,-0.13736273799858023,0.010000000000000002,0.0,0.0,0.0,0.010000000000000002,0.0,0.0,0.0,0.010000000000000002,0.0,0.0,0.0,0.02,0.0,0.0,0.0,0.02,0.0,0.0,0.0,0.02,-0.002,0.003,0.999,0.04,0.0,0.0,0.0,0.04,0.0,0.0,0.0,0.01
1765344897443683466,51717,1765344897382838576,imu_link,-0.00892366996630544,0.0009284343322903117,0.9904827369257981,-0.13734428992864303,0.010000000000000002,0.0,0.0,0.0,0.010000000000000002,0.0,0.0,0.0,0.010000000000000002,0.0,0.0,0.0,0.02,0.0,0.0,0.0,0.02,0.0,0.0,0.0,0.02,-0.006,0.003,1.002,0.04,0.0,0.0,0.0,0.04,0.0,0.0,0.0,0.01
1765344897472334259,51718,1765344897462898860,imu_link,0.0030890806956806642,0.0011069555565583495,0.9905155195280383,-0.13736170428453479,0.010000000000000002,0.0,0.0,0.0,0.010000000000000002,0.0,0.0,0.0,0.010000000000000002,0.0,0.0,0.0,0.02,0.0,0.0,0.0,0.02,0.0,0.0,0.0,0.02,-0.007,0.003,1.002,0.04,0.0,0.0,0.0,0.04,0.0,0.0,0.0,0.01
1765344897544097011,51719,1765344897542480940,imu_link,-0.008845568701864136,0.0008606617767074301,0.9904835049733993,-0.13734424469651707,0.010000000000000002,0.0,0.0,0.0,0.010000000000000002,0.0,0.0,0.0,0.010000000000000002,-0.0017453292519943296,0.0,0.0,0.02,0.0,0.0,0.0,0.02,0.0,0.0,0.0,0.02,-0.007,0.003,1.002,0.04,0.0,0.0,0.0,0.04,0.0,0.0,0.0,0.01
1765344897626547600,51720,1765344897623039389,imu_link,0.00322590827659046,0.001504015669063385,0.9905141407745813,-0.13736472756225063,0.010000000000000002,0.0,0.0,0.0,0.010000000000000002,0.0,0.0,0.0,0.010000000000000002,0.0,0.0,0.0,0.02,0.0,0.0,0.0,0.02,0.0,0.0,0.0,0.02,-0.004,0.003,1.0,0.04,0.0,0.0,0.0,0.04,0.0,0.0,0.0,0.01
1765344897710547439,51721,1765344897702978747,imu_link,-0.008765544797648347,0.0017858887240914565,0.9904833836191221,-0.13734133609471194,0.010000000000000002,0.0,0.0,0.0,0.010000000000000002,0.0,0.0,0.0,0.010000000000000002,0.0,0.0,0.0,0.02,0.0,0.0,0.0,0.02,0.0,0.0,0.0,0.02,-0.005,0.004,0.999,0.04,0.0,0.0,0.0,0.04,0.0,0.0,0.0,0.01
1765344897780812292,51722,1765344897781917828,imu_link,0.0027362880158275076,-0.0010580684635382266,0.9905193573591864,-0.13734189424849794,0.010000000000000002,0.0,0.0,0.0,0.010000000000000002,0.0,0.0,0.0,0.010000000000000002,0.0,0.0,0.0,0.02,0.0,0.0,0.0,0.02,0.0,0.0,0.0,0.02,-0.007,0.002,1.0030000000000001,0.04,0.0,0.0,0.0,0.04,0.0,0.0,0.0,0.01
1765344897876353841,51723,1765344897861745501,imu_link,-0.007842674654981589,0.004466335040874241,0.9904838651453144,-0.13733265158860614,0.010000000000000002,0.0,0.0,0.0,0.010000000000000002,0.0,0.0,0.0,0.010000000000000002,-0.0017453292519943296,0.0,0.0,0.02,0.0,0.0,0.0,0.02,0.0,0.0,0.0,0.02,-0.003,0.003,1.0,0.04,0.0,0.0,0.0,0.04,0.0,0.0,0.0,0.01
1765344897955585659,51724,1765344897941554118,imu_link,0.002220437817181173,-0.002019347777952523,0.990520559539957,-0.13733176260101737,0.010000000000000002,0.0,0.0,0.0,0.010000000000000002,0.0,0.0,0.0,0.010000000000000002,0.0,0.0,0.0,0.02,0.0,0.0,0.0,0.02,0.0,0.0,0.0,0.02,-0.005,0.003,1.0,0.04,0.0,0.0,0.0,0.04,0.0,0.0,0.0,0.01
1765344898054302163,51725,1765344898034837881,imu_link,-0.00594679701915297,0.009242126534011923,0.9904442832763316,-0.13747487198603167,0.010000000000000002,0.0,0.0,0.0,0.010000000000000002,0.0,0.0,0.0,0.010000000000000002,-0.005235987755982989,0.005235987755982989,0.003490658503988659,0.02,0.0,0.0,0.0,0.02,0.0,0.0,0.0,0.02,0.0,0.003,0.993,0.04,0.0,0.0,0.0,0.04,0.0,0.0,0.0,0.01
1765344898102973740,51726,1765344898101445296,imu_link,-0.0021901267449991857,0.01839437728364275,0.9903217335385687,-0.13754895241459272,0.010000000000000002,0.0,0.0,0.0,0.010000000000000002,0.0,0.0,0.0,0.010000000000000002,-0.003490658503988659,0.0,0.0,0.02,0.0,0.0,0.0,0.02,0.0,0.0,0.0,0.02,0.034,0.096,1.025,0.04,0.0,0.0,0.0,0.04,0.0,0.0,0.0,0.01
1765344898187078813,51727,1765344898181838561,imu_link,-0.010339043437804637,0.02719835336973713,0.9901853129245339,-0.13669820709617553,0.010000000000000002,0.0,0.0,0.0,0.010000000000000002,0.0,0.0,0.0,0.010000000000000002,-0.005235987755982989,0.005235987755982989,-0.017453292519943295,0.02,0.0,0.0,0.0,0.02,0.0,0.0,0.0,0.02,-0.028,0.081,1.014,0.04,0.0,0.0,0.0,0.04,0.0,0.0,0.0,0.01
1765344898251636753,51728,1765344898250437140,imu_link,-0.013959525692092564,0.037136044060970895,0.989807992667634,-0.13677055065043184,0.010000000000000002,0.0,0.0,0.0,0.010000000000000002,0.0,0.0,0.0,0.010000000000000002,0.008726646259971648,0.0017453292519943296,0.003490658503988659,0.02,0.0,0.0,0.0,0.02,0.0,0.0,0.0,0.02,-0.02,0.089,0.967,0.04,0.0,0.0,0.0,0.04,0.0,0.0,0.0,0.01
1765344898340041063,51729,1765344898329983868,imu_link,-0.0008612838165541729,0.03144473835201016,0.9903011521765032,-0.13532965165864805,0.010000000000000002,0.0,0.0,0.0,0.010000000000000002,0.0,0.0,0.0,0.010000000000000002,0.003490658503988659,-0.07679448708775051,-0.04188790204786391,0.02,0.0,0.0,0.0,0.02,0.0,0.0,0.0,0.02,0.002,0.064,1.043,0.04,0.0,0.0,0.0,0.04,0.0,0.0,0.0,0.01
1765344898411289744,51730,1765344898408388136,imu_link,-0.01054001710576871,0.02409570916188048,0.9909321874636855,-0.13176382161971226,0.010000000000000002,0.0,0.0,0.0,0.010000000000000002,0.0,0.0,0.0,0.010000000000000002,0.010471975511965978,0.015707963267948967,-0.08552113334772216,0.02,0.0,0.0,0.0,0.02,0.0,0.0,0.0,0.02,-0.032,0.029,0.858,0.04,0.0,0.0,0.0,0.04,0.0,0.0,0.0,0.01
1765344898533858645,51731,1765344898487373161,imu_link,-0.007469818435390695,0.01054739315527127,0.9915904639475039,-0.1287684205018626,0.010000000000000002,0.0,0.0,0.0,0.010000000000000002,0.0,0.0,0.0,0.010000000000000002,-0.05235987755982988,0.006981317007977318,-0.07679448708775051,0.02,0.0,0.0,0.0,0.02,0.0,0.0,0.0,0.02,-0.011,0.03,0.907,0.04,0.0,0.0,0.0,0.04,0.0,0.0,0.0,0.01
1765344898574839355,51732,1765344898566804001,imu_link,-0.01574767146840132,0.011767249857123425,0.9922873574571853,-0.12239012584665214,0.010000000000000002,0.0,0.0,0.0,0.010000000000000002,0.0,0.0,0.0,0.010000000000000002,0.02617993877991494,-0.09773843811168245,-0.15707963267948966,0.02,0.0,0.0,0.0,0.02,0.0,0.0,0.0,0.02,-0.054,0.031,1.173,0.04,0.0,0.0,0.0,0.04,0.0,0.0,0.0,0.01
1765344898653312596,51733,1765344898647048747,imu_link,-0.009187019414255006,0.004846795372322887,0.9933487238902601,-0.11467528066018691,0.010000000000000002,0.0,0.0,0.0,0.010000000000000002,0.0,0.0,0.0,0.010000000000000002,-0.07155849933176751,0.13264502315156904,-0.1989675347273536,0.02,0.0,0.0,0.0,0.02,0.0,0.0,0.0,0.02,0.013000000000000001,0.009000000000000001,0.9550000000000001,0.04,0.0,0.0,0.0,0.04,0.0,0.0,0.0,0.01
1765344898730092999,51734,1765344898726431254,imu_link,0.0014689150871281188,0.003417570500346377,0.9944981696860213,-0.10468788369002081,0.010000000000000002,0.0,0.0,0.0,0.010000000000000002,0.0,0.0,0.0,0.010000000000000002,-0.010471975511965978,0.031415926535897934,-0.25481807079117214,0.02,0.0,0.0,0.0,0.02,0.0,0.0,0.0,0.02,0.03,0.004,1.104,0.04,0.0,0.0,0.0,0.04,0.0,0.0,0.0,0.01
1765344898809678054,51735,1765344898806848666,imu_link,0.013670135334661507,-0.00127491666522175,0.9951109786747594,-0.09780410067267764,0.010000000000000002,0.0,0.0,0.0,0.010000000000000002,0.0,0.0,0.0,0.010000000000000002,0.07155849933176751,-0.08552113334772216,-0.17278759594743864,0.02,0.0,0.0,0.0,0.02,0.0,0.0,0.0,0.02,0.021,-0.014,0.8250000000000001,0.04,0.0,0.0,0.0,0.04,0.0,0.0,0.0,0.01
1765344898892808341,51736,1765344898886067136,imu_link,0.002663162373379936,-0.0023203222125678766,0.9963196456004705,-0.0856427898982507,0.010000000000000002,0.0,0.0,0.0,0.010000000000000002,0.0,0.0,0.0,0.010000000000000002,-0.08028514559173917,-0.010471975511965978,-0.30717794835100204,0.02,0.0,0.0,0.0,0.02,0.0,0.0,0.0,0.02,-0.001,0.002,0.896,0.04,0.0,0.0,0.0,0.04,0.0,0.0,0.0,0.01
1765344898992667867,51737,1765344898965883402,imu_link,-0.01915445013720858,-0.006175991129805889,0.9968036602104818,-0.0773138225965577,0.010000000000000002,0.0,0.0,0.0,0.010000000000000002,0.0,0.0,0.0,0.010000000000000002,0.054105206811824215,0.27227136331111546,-0.20943951023931953,0.02,0.0,0.0,0.0,0.02,0.0,0.0,0.0,0.02,-0.032,-0.017,0.751,0.04,0.0,0.0,0.0,0.04,0.0,0.0,0.0,0.01
1765344899072700594,51738,1765344899059983219,imu_link,0.010241289319231933,-0.002629309442359038,0.9981900164222328,-0.0592021438794153,0.010000000000000002,0.0,0.0,0.0,0.010000000000000002,0.0,0.0,0.0,0.010000000000000002,-0.054105206811824215,-0.34033920413889424,-0.3892084231947355,0.02,0.0,0.0,0.0,0.02,0.0,0.0,0.0,0.02,0.007,0.005,1.038,0.04,0.0,0.0,0.0,0.04,0.0,0.0,0.0,0.01
1765344899125812290,51739,1765344899125499784,imu_link,0.007828493672086559,-0.014687975732247071,0.9990249741183437,-0.04089106434855328,0.010000000000000002,0.0,0.0,0.0,0.010000000000000002,0.0,0.0,0.0,0.010000000000000002,-0.08028514559173917,0.013962634015954637,-0.5619960191421741,0.02,0.0,0.0,0.0,0.02,0.0,0.0,0.0,0.02,-0.03,-0.178,0.97,0.04,0.0,0.0,0.0,0.04,0.0,0.0,0.0,0.01
1765344899205984303,51740,1765344899205315808,imu_link,0.009757678610941789,-0.02799432847975251,0.9994359942285969,-0.015773354791845787,0.010000000000000002,0.0,0.0,0.0,0.010000000000000002,0.0,0.0,0.0,0.010000000000000002,-0.047123889803846894,0.04014257279586959,-0.630063859969953,0.02,0.0,0.0,0.0,0.02,0.0,0.0,0.0,0.02,0.019,-0.051000000000000004,0.985,0.04,0.0,0.0,0.0,0.04,0.0,0.0,0.0,0.01
1765344899294055023,51741,1765344899286993756,imu_link,0.022135981753970684,-0.030069209585692404,0.9992929568692679,0.00440764088319707,0.010000000000000002,0.0,0.0,0.0,0.010000000000000002,0.0,0.0,0.0,0.010000000000000002,0.006981317007977318,0.003490658503988659,-0.486946861306418,0.02,0.0,0.0,0.0,0.02,0.0,0.0,0.0,0.02,0.034,-0.056,0.928,0.04,0.0,0.0,0.0,0.04,0.0,0.0,0.0,0.01
1765344899371392512,51742,1765344899365988578,imu_link,0.01202101771337569,-0.03520041014081242,0.9989211953535371,0.027800570722816463,0.010000000000000002,0.0,0.0,0.0,0.010000000000000002,0.0,0.0,0.0,0.010000000000000002,0.029670597283903605,0.029670597283903605,-0.603883921190038,0.02,0.0,0.0,0.0,0.02,0.0,0.0,0.0,0.02,-0.037,-0.123,1.053,0.04,0.0,0.0,0.0,0.04,0.0,0.0,0.0,0.01
1765344899454038136,51743,1765344899444858567,imu_link,0.008570540343504268,-0.04966701865293931,0.9978356319305404,0.04223487594545946,0.010000000000000002,0.0,0.0,0.0,0.010000000000000002,0.0,0.0,0.0,0.010000000000000002,-0.08377580409572782,0.019198621771937627,-0.3717551306747922,0.02,0.0,0.0,0.0,0.02,0.0,0.0,0.0,0.02,0.003,-0.153,0.937,0.04,0.0,0.0,0.0,0.04,0.0,0.0,0.0,0.01
1765344899526322079,51744,1765344899524588036,imu_link,-0.0005099317714131454,-0.04307756368216736,0.9978969098685669,0.04843367373597304,0.010000000000000002,0.0,0.0,0.0,0.010000000000000002,0.0,0.0,0.0,0.010000000000000002,0.005235987755982989,-0.017453292519943295,-0.16755160819145565,0.02,0.0,0.0,0.0,0.02,0.0,0.0,0.0,0.02,-0.028,-0.065,0.9390000000000001,0.04,0.0,0.0,0.0,0.04,0.0,0.0,0.0,0.01
1765344899599498274,51745,1765344899593690003,imu_link,-0.003289807957249443,-0.033609470986805196,0.9978168400851963,0.05675503736220284,0.010000000000000002,0.0,0.0,0.0,0.010000000000000002,0.0,0.0,0.0,0.010000000000000002,-0.019198621771937627,0.024434609527920613,-0.24260076602721178,0.02,0.0,0.0,0.0,0.02,0.0,0.0,0.0,0.02,-0.012,-0.028,0.96,0.04,0.0,0.0,0.0,0.04,0.0,0.0,0.0,0.01
1765344899679030685,51746,1765344899672850381,imu_link,0.0015553230533357232,-0.024170075074549425,0.9974050785253531,0.06779747615453507,0.010000000000000002,0.0,0.0,0.0,0.010000000000000002,0.0,0.0,0.0,0.010000000000000002,0.05585053606381855,0.13264502315156904,-0.2670353755551324,0.02,0.0,0.0,0.0,0.02,0.0,0.0,0.0,0.02,0.034,-0.037,0.995,0.04,0.0,0.0,0.0,0.04,0.0,0.0,0.0,0.01
1765344899751228658,51747,1765344899751382703,imu_link,0.011493305557210927,-0.008278848185075247,0.9971195605789738,0.07451138510919862,0.010000000000000002,0.0,0.0,0.0,0.010000000000000002,0.0,0.0,0.0,0.010000000000000002,0.12740903539558607,-0.15707963267948966,-0.17278759594743864,0.02,0.0,0.0,0.0,0.02,0.0,0.0,0.0,0.02,0.013000000000000001,-0.008,0.878,0.04,0.0,0.0,0.0,0.04,0.0,0.0,0.0,0.01
1765344899834988794,51748,1765344899830988413,imu_link,0.0004956013431634207,-0.001171784971689551,0.9962542398686492,0.08646311839755091,0.010000000000000002,0.0,0.0,0.0,0.010000000000000002,0.0,0.0,0.0,0.010000000000000002,0.03490658503988659,0.015707963267948967,-0.301941960595019,0.02,0.0,0.0,0.0,0.02,0.0,0.0,0.0,0.02,-0.034,0.01,1.076,0.04,0.0,0.0,0.0,0.04,0.0,0.0,0.0,0.01
1765344899981340939,51749,1765344899910471809,imu_link,-0.00839395672034222,0.012391839956646812,0.995441793097138,0.09418927937202237,0.010000000000000002,0.0,0.0,0.0,0.010000000000000002,0.0,0.0,0.0,0.010000000000000002,0.07504915783575616,0.08028514559173917,-0.1954768762233649,0.02,0.0,0.0,0.0,0.02,0.0,0.0,0.0,0.02,-0.006,0.008,0.997,0.04,0.0,0.0,0.0,0.04,0.0,0.0,0.0,0.01
1765344899999941797,51750,1765344899991775609,imu_link,-0.013847544935034635,0.003239047640273664,0.9948679614421228,0.10017730963472332,0.010000000000000002,0.0,0.0,0.0,0.010000000000000002,0.0,0.0,0.0,0.010000000000000002,0.02617993877991494,-0.03665191429188092,-0.14311699866353503,0.02,0.0,0.0,0.0,0.02,0.0,0.0,0.0,0.02,-0.023,0.01,0.896,0.04,0.0,0.0,0.0,0.04,0.0,0.0,0.0,0.01
1765344900073949874,51751,1765344900070027321,imu_link,-0.021346711455787187,0.009253460558558283,0.9942643458614198,0.10438918491145263,0.010000000000000002,0.0,0.0,0.0,0.010000000000000002,0.0,0.0,0.0,0.010000000000000002,0.0017453292519943296,-0.06283185307179587,-0.10995574287564278,0.02,0.0,0.0,0.0,0.02,0.0,0.0,0.0,0.02,-0.063,0.019,1.193,0.04,0.0,0.0,0.0,0.04,0.0,0.0,0.0,0.01
1765344900154841848,51752,1765344900149806327,imu_link,-0.010282937497988039,0.0010374692208253826,0.9941390814372842,0.10761352894994732,0.010000000000000002,0.0,0.0,0.0,0.010000000000000002,0.0,0.0,0.0,0.010000000000000002,-0.04014257279586959,-0.029670597283903605,-0.08028514559173917,0.02,0.0,0.0,0.0,0.02,0.0,0.0,0.0,0.02,0.025,-0.02,0.918,0.04,0.0,0.0,0.0,0.04,0.0,0.0,0.0,0.01
1765344900230317120,51753,1765344900229646611,imu_link,-0.013780292884755095,-0.012087195540083811,0.9940895264816044,0.10700475022897535,0.010000000000000002,0.0,0.0,0.0,0.010000000000000002,0.0,0.0,0.0,0.010000000000000002,-0.050614548307835565,-0.04014257279586959,0.017453292519943295,0.02,0.0,0.0,0.0,0.02,0.0,0.0,0.0,0.02,-0.023,-0.014,0.9,0.04,0.0,0.0,0.0,0.04,0.0,0.0,0.0,0.01
1765344900313149958,51754,1765344900310006116,imu_link,-0.013471194625916179,-0.0025902289196350196,0.9941470218415612,0.10716117110711816,0.010000000000000002,0.0,0.0,0.0,0.010000000000000002,0.0,0.0,0.0,0.010000000000000002,-0.06283185307179587,-0.010471975511965978,-0.008726646259971648,0.02,0.0,0.0,0.0,0.02,0.0,0.0,0.0,0.02,-0.033,0.039,1.075,0.04,0.0,0.0,0.0,0.04,0.0,0.0,0.0,0.01
1765344900390715999,51755,1765344900389938862,imu_link,-0.0015136143806293977,-0.004331236304713277,0.9943432332187004,0.10611542732214212,0.010000000000000002,0.0,0.0,0.0,0.010000000000000002,0.0,0.0,0.0,0.010000000000000002,0.07155849933176751,-0.013962634015954637,0.029670597283903605,0.02,0.0,0.0,0.0,0.02,0.0,0.0,0.0,0.02,0.05,-0.029,0.937,0.04,0.0,0.0,0.0,0.04,0.0,0.0,0.0,0.01
1765344900476871949,51756,1765344900469988498,imu_link,-0.000956827282121459,0.007945899623769242,0.9947398816219869,0.10212010121125227,0.010000000000000002,0.0,0.0,0.0,0.010000000000000002,0.0,0.0,0.0,0.010000000000000002,0.013962634015954637,-0.050614548307835565,0.0994837673636768,0.02,0.0,0.0,0.0,0.02,0.0,0.0,0.0,0.02,-0.018000000000000002,0.055,1.206,0.04,0.0,0.0,0.0,0.04,0.0,0.0,0.0,0.01
1765344900550730415,51757,1765344900549082653,imu_link,-0.004718227750270573,-0.0044604411291187425,0.9950873466099203,0.0987877290388777,0.010000000000000002,0.0,0.0,0.0,0.010000000000000002,0.0,0.0,0.0,0.010000000000000002,-0.02617993877991494,0.010471975511965978,0.08552113334772216,0.02,0.0,0.0,0.0,0.02,0.0,0.0,0.0,0.02,-0.004,0.009000000000000001,0.891,0.04,0.0,0.0,0.0,0.04,0.0,0.0,0.0,0.01
1765344900655403219,51758,1765344900642084509,imu_link,0.0006213114774719183,0.009725781041879194,0.9957320408256904,0.09177541080419681,0.010000000000000002,0.0,0.0,0.0,0.010000000000000002,0.0,0.0,0.0,0.010000000000000002,0.015707963267948967,-0.05585053606381855,0.15009831567151233,0.02,0.0,0.0,0.0,0.02,0.0,0.0,0.0,0.02,-0.004,0.043000000000000003,1.086,0.04,0.0,0.0,0.0,0.04,0.0,0.0,0.0,0.01
1765344900722527686,51759,1765344900722005867,imu_link,-0.0027264770354562227,0.021778711115299262,0.9971408713844142,0.07230723808763839,0.010000000000000002,0.0,0.0,0.0,0.010000000000000002,0.0,0.0,0.0,0.010000000000000002,0.0,0.050614548307835565,0.4886921905584123,0.02,0.0,0.0,0.0,0.02,0.0,0.0,0.0,0.02,-0.02,0.105,0.904,0.04,0.0,0.0,0.0,0.04,0.0,0.0,0.0,0.01
1765344900793912866,51760,1765344900788946189,imu_link,-0.0009674976566340756,0.029968321473405442,0.9982111089898119,0.051725675884233116,0.010000000000000002,0.0,0.0,0.0,0.010000000000000002,0.0,0.0,0.0,0.010000000000000002,-0.054105206811824215,-0.003490658503988659,0.6143558967020041,0.02,0.0,0.0,0.0,0.02,0.0,0.0,0.0,0.02,-0.005,0.099,0.981,0.04,0.0,0.0,0.0,0.04,0.0,0.0,0.0,0.01
1765344900863710492,51761,1765344900857696619,imu_link,-0.0015365402647413392,0.040428054844513776,0.9978003530928548,0.052513491535776655,0.010000000000000002,0.0,0.0,0.0,0.010000000000000002,0.0,0.0,0.0,0.010000000000000002,0.006981317007977318,-0.010471975511965978,-0.022689280275926284,0.02,0.0,0.0,0.0,0.02,0.0,0.0,0.0,0.02,-0.007,0.073,0.977,0.04,0.0,0.0,0.0,0.04,0.0,0.0,0.0,0.01
1765344900936677722,51762,1765344900937002200,imu_link,-0.011441308187504535,0.03987054615651003,0.9979310072807847,0.049123728723482196,0.010000000000000002,0.0,0.0,0.0,0.010000000000000002,0.0,0.0,0.0,0.010000000000000002,-0.03316125578789226,-0.047123889803846894,0.0994837673636768,0.02,0.0,0.0,0.0,0.02,0.0,0.0,0.0,0.02,-0.065,0.08700000000000001,1.067,0.04,0.0,0.0,0.0,0.04,0.0,0.0,0.0,0.01
1765344901022938717,51763,1765344901015994800,imu_link,-0.004248221112059045,0.032175749727052505,0.9986861505391895,0.039656606865697094,0.010000000000000002,0.0,0.0,0.0,0.010000000000000002,0.0,0.0,0.0,0.010000000000000002,0.003490658503988659,0.047123889803846894,0.23212879051524585,0.02,0.0,0.0,0.0,0.02,0.0,0.0,0.0,0.02,0.021,0.037,0.976,0.04,0.0,0.0,0.0,0.04,0.0,0.0,0.0,0.01
1765344901095590535,51764,1765344901095079863,imu_link,-0.0063992239256721985,0.02129204036721473,0.9993220163768227,0.029346320633278147,0.010000000000000002,0.0,0.0,0.0,0.010000000000000002,0.0,0.0,0.0,0.010000000000000002,0.013962634015954637,-0.012217304763960306,0.26529004630313807,0.02,0.0,0.0,0.0,0.02,0.0,0.0,0.0,0.02,-0.021,0.015,0.972,0.04,0.0,0.0,0.0,0.04,0.0,0.0,0.0,0.01
1765344901177735592,51765,1765344901174125611,imu_link,0.006205942710728212,0.012630270578535384,0.999713660369691,0.019353547747587668,0.010000000000000002,0.0,0.0,0.0,0.010000000000000002,0.0,0.0,0.0,0.010000000000000002,-0.017453292519943295,-0.09075712110370514,0.25132741228718347,0.02,0.0,0.0,0.0,0.02,0.0,0.0,0.0,0.02,0.039,-0.004,0.961,0.04,0.0,0.0,0.0,0.04,0.0,0.0,0.0,0.01
1765344901287963114,51766,1765344901280995982,imu_link,-0.006922363761261761,0.007140304356936756,0.9999406572568379,0.004447347345320222,0.010000000000000002,0.0,0.0,0.0,0.010000000000000002,0.0,0.0,0.0,0.010000000000000002,0.10821041362364843,0.03665191429188092,0.2792526803190927,0.02,0.0,0.0,0.0,0.02,0.0,0.0,0.0,0.02,-0.017,-0.001,1.221,0.04,0.0,0.0,0.0,0.04,0.0,0.0,0.0,0.01
1765344901339405642,51767,1765344901333997622,imu_link,-0.00779712819592731,-0.0047657919490958975,0.9999474477384145,-0.004646910847527876,0.010000000000000002,0.0,0.0,0.0,0.010000000000000002,0.0,0.0,0.0,0.010000000000000002,-0.1518436449235067,0.04363323129985824,0.34382986264288296,0.02,0.0,0.0,0.0,0.02,0.0,0.0,0.0,0.02,-0.009000000000000001,-0.098,0.921,0.04,0.0,0.0,0.0,0.04,0.0,0.0,0.0,0.01
1765344901441387659,51768,1765344901440249217,imu_link,-0.006928961520040818,-0.02088427629875222,0.9989847339952505,-0.03931078401876434,0.010000000000000002,0.0,0.0,0.0,0.010000000000000002,0.0,0.0,0.0,0.010000000000000002,-0.019198621771937627,-0.09599310885968812,0.6544984694978736,0.02,0.0,0.0,0.0,0.02,0.0,0.0,0.0,0.02,-0.033,-0.083,0.8150000000000001,0.04,0.0,0.0,0.0,0.04,0.0,0.0,0.0,0.01
1765344901495496571,51769,1765344901493381709,imu_link,-0.003130779106327549,-0.0155848205694838,0.9982286448330582,-0.05733135463915365,0.010000000000000002,0.0,0.0,0.0,0.010000000000000002,0.0,0.0,0.0,0.010000000000000002,-0.05235987755982988,0.013962634015954637,0.6806784082777885,0.02,0.0,0.0,0.0,0.02,0.0,0.0,0.0,0.02,-0.007,-0.027,0.867,0.04,0.0,0.0,0.0,0.04,0.0,0.0,0.0,0.01
1765344901574572641,51770,1765344901573200419,imu_link,-0.004869698496771017,-0.026235308925517682,0.9976486591771525,-0.06312802423775875,0.010000000000000002,0.0,0.0,0.0,0.010000000000000002,0.0,0.0,0.0,0.010000000000000002,0.017453292519943295,-0.04537856055185257,0.14486232791552936,0.02,0.0,0.0,0.0,0.02,0.0,0.0,0.0,0.02,-0.046,-0.136,1.028,0.04,0.0,0.0,0.0,0.04,0.0,0.0,0.0,0.01
1765344901656020778,51771,1765344901653859553,imu_link,0.003484027536935258,-0.03100783042783573,0.9972186409116526,-0.06768573130724934,0.010000000000000002,0.0,0.0,0.0,0.010000000000000002,0.0,0.0,0.0,0.010000000000000002,0.048869219055841226,0.03665191429188092,0.12217304763960307,0.02,0.0,0.0,0.0,0.02,0.0,0.0,0.0,0.02,0.01,-0.061,0.869,0.04,0.0,0.0,0.0,0.04,0.0,0.0,0.0,0.01
1765344901739141852,51772,1765344901732822097,imu_link,0.00632781148983413,-0.020272055987929163,0.9967644172649747,-0.07752224856250496,0.010000000000000002,0.0,0.0,0.0,0.010000000000000002,0.0,0.0,0.0,0.010000000000000002,0.05934119456780721,0.11868238913561442,0.26005405854715513,0.02,0.0,0.0,0.0,0.02,0.0,0.0,0.0,0.02,0.056,-0.018000000000000002,1.104,0.04,0.0,0.0,0.0,0.04,0.0,0.0,0.0,0.01
1765344901823228964,51773,1765344901812998381,imu_link,-0.003503336480358594,-0.018231195627066734,0.9959611411787651,-0.08784506475269231,0.010000000000000002,0.0,0.0,0.0,0.010000000000000002,0.0,0.0,0.0,0.010000000000000002,-0.06632251157578452,-0.031415926535897934,0.2530727415391778,0.02,0.0,0.0,0.0,0.02,0.0,0.0,0.0,0.02,-0.02,-0.029,1.079,0.04,0.0,0.0,0.0,0.04,0.0,0.0,0.0,0.01
1765344901896407065,51774,1765344901892448313,imu_link,0.001954427160984611,-0.008944595039763584,0.9954044589616606,-0.09532123327617377,0.010000000000000002,0.0,0.0,0.0,0.010000000000000002,0.0,0.0,0.0,0.010000000000000002,0.0,0.04363323129985824,0.19198621771937624,0.02,0.0,0.0,0.0,0.02,0.0,0.0,0.0,0.02,0.035,0.012,1.039,0.04,0.0,0.0,0.0,0.04,0.0,0.0,0.0,0.01
1765344901974474849,51775,1765344901972880689,imu_link,0.006672059314915931,0.0016276814945664843,0.9945660579219002,-0.10388065607774,0.010000000000000002,0.0,0.0,0.0,0.010000000000000002,0.0,0.0,0.0,0.010000000000000002,0.027925268031909273,0.05759586531581287,0.21642082724729686,0.02,0.0,0.0,0.0,0.02,0.0,0.0,0.0,0.02,0.052000000000000005,0.04,0.854,0.04,0.0,0.0,0.0,0.04,0.0,0.0,0.0,0.01
1765344902057003452,51776,1765344902052950083,imu_link,0.010846609854479381,0.012876766136565531,0.9933855777685588,-0.11358535922360433,0.010000000000000002,0.0,0.0,0.0,0.010000000000000002,0.0,0.0,0.0,0.010000000000000002,-0.008726646259971648,-0.022689280275926284,0.24609142453120048,0.02,0.0,0.0,0.0,0.02,0.0,0.0,0.0,0.02,0.018000000000000002,0.01,1.095,0.04,0.0,0.0,0.0,0.04,0.0,0.0,0.0,0.01
1765344902121118491,51777,1765344902121730236,imu_link,0.0041572195146492305,0.004294631351511357,0.9922524463079256,-0.12409414354996207,0.010000000000000002,0.0,0.0,0.0,0.010000000000000002,0.0,0.0,0.0,0.010000000000000002,-0.050614548307835565,-0.020943951023931956,0.3089232776029963,0.02,0.0,0.0,0.0,0.02,0.0,0.0,0.0,0.02,-0.009000000000000001,0.0,1.036,0.04,0.0,0.0,0.0,0.04,0.0,0.0,0.0,0.01
1765344902203513553,51778,1765344902200462114,imu_link,-0.004642469542060616,-0.005245320240335533,0.9906033833446274,-0.13658649639808704,0.010000000000000002,0.0,0.0,0.0,0.010000000000000002,0.0,0.0,0.0,0.010000000000000002,-0.09599310885968812,-0.024434609527920613,0.3211405823669567,0.02,0.0,0.0,0.0,0.02,0.0,0.0,0.0,0.02,-0.004,0.002,1.014,0.04,0.0,0.0,0.0,0.04,0.0,0.0,0.0,0.01
1765344902283355313,51779,1765344902279390381,imu_link,-0.007762762349917451,-0.017032106017317958,0.9887871093438401,-0.14815430901855825,0.010000000000000002,0.0,0.0,0.0,0.010000000000000002,0.0,0.0,0.0,0.010000000000000002,-0.04537856055185257,-0.061086523819801536,0.29670597283903605,0.02,0.0,0.0,0.0,0.02,0.0,0.0,0.0,0.02,-0.025,-0.029,0.909,0.04,0.0,0.0,0.0,0.04,0.0,0.0,0.0,0.01
1765344902390995813,51780,1765344902358393721,imu_link,-0.011241637493115719,-0.005877167688567266,0.9876331812670066,-0.15626830691744834,0.010000000000000002,0.0,0.0,0.0,0.010000000000000002,0.0,0.0,0.0,0.010000000000000002,-0.008726646259971648,0.017453292519943295,0.20420352248333656,0.02,0.0,0.0,0.0,0.02,0.0,0.0,0.0,0.02,-0.03,0.037,1.177,0.04,0.0,0.0,0.0,0.04,0.0,0.0,0.0,0.01
1765344902437282993,51781,1765344902437875728,imu_link,-0.021090943102894222,-0.012595565644915315,0.9856715523690462,-0.16687754401209856,0.010000000000000002,0.0,0.0,0.0,0.010000000000000002,0.0,0.0,0.0,0.010000000000000002,0.008726646259971648,0.005235987755982989,0.27227136331111546,0.02,0.0,0.0,0.0,0.02,0.0,0.0,0.0,0.02,-0.035,-0.015,0.764,0.04,0.0,0.0,0.0,0.04,0.0,0.0,0.0,0.01
1765344902519038275,51782,1765344902517754752,imu_link,-0.012819049420338208,-0.008455093700041263,0.984075335056461,-0.17708731828111324,0.010000000000000002,0.0,0.0,0.0,0.010000000000000002,0.0,0.0,0.0,0.010000000000000002,0.10297442586766545,0.07330382858376185,0.26529004630313807,0.02,0.0,0.0,0.0,0.02,0.0,0.0,0.0,0.02,-0.008,-0.02,0.876,0.04,0.0,0.0,0.0,0.04,0.0,0.0,0.0,0.01
1765344902600125540,51783,1765344902597983757,imu_link,0.000608671720871227,0.001131149424906465,0.9818635724391341,-0.18958448021073884,0.010000000000000002,0.0,0.0,0.0,0.010000000000000002,0.0,0.0,0.0,0.010000000000000002,0.03490658503988659,-0.10646508437165411,0.31590459461097364,0.02,0.0,0.0,0.0,0.02,0.0,0.0,0.0,0.02,0.019,0.012,0.99,0.04,0.0,0.0,0.0,0.04,0.0,0.0,0.0,0.01
1765344902690197485,51784,1765344902678004448,imu_link,-0.00037563348785428583,0.010441667279023174,0.9796475169906118,-0.20045341837455952,0.010000000000000002,0.0,0.0,0.0,0.010000000000000002,0.0,0.0,0.0,0.010000000000000002,-0.06457718232379019,0.015707963267948967,0.2775073510670984,0.02,0.0,0.0,0.0,0.02,0.0,0.0,0.0,0.02,0.008,0.053,1.232,0.04,0.0,0.0,0.0,0.04,0.0,0.0,0.0,0.01
1765344902759239349,51785,1765344902757137030,imu_link,0.005303327548069874,0.015314535481016068,0.9774118855456793,-0.21072101393538922,0.010000000000000002,0.0,0.0,0.0,0.010000000000000002,0.0,0.0,0.0,0.010000000000000002,-0.12042771838760874,0.048869219055841226,0.2635447170511438,0.02,0.0,0.0,0.0,0.02,0.0,0.0,0.0,0.02,0.03,0.047,0.984,0.04,0.0,0.0,0.0,0.04,0.0,0.0,0.0,0.01
1765344902838699442,51786,1765344902836958147,imu_link,0.0061932570473194224,0.00691240052144524,0.9756247406026545,-0.21924923673796431,0.010000000000000002,0.0,0.0,0.0,0.010000000000000002,0.0,0.0,0.0,0.010000000000000002,0.08377580409572782,0.09250245035569947,0.21293016874330822,0.02,0.0,0.0,0.0,0.02,0.0,0.0,0.0,0.02,0.028,-0.039,0.8260000000000001,0.04,0.0,0.0,0.0,0.04,0.0,0.0,0.0,0.01
1765344902921208300,51787,1765344902916798967,imu_link,-0.001463617147859734,0.01593681424744958,0.973127090670002,-0.22971186556341494,0.010000000000000002,0.0,0.0,0.0,0.010000000000000002,0.0,0.0,0.0,0.010000000000000002,0.003490658503988659,-0.008726646259971648,0.27227136331111546,0.02,0.0,0.0,0.0,0.02,0.0,0.0,0.0,0.02,0.002,0.035,1.031,0.04,0.0,0.0,0.0,0.04,0.0,0.0,0.0,0.01
1765344903006549629,51788,1765344902996596399,imu_link,-0.005420675985922863,0.007961115549450578,0.970857832739255,-0.23946253468945994,0.010000000000000002,0.0,0.0,0.0,0.010000000000000002,0.0,0.0,0.0,0.010000000000000002,0.038397243543875255,-0.06806784082777886,0.25481807079117214,0.02,0.0,0.0,0.0,0.02,0.0,0.0,0.0,0.02,-0.02,0.012,1.158,0.04,0.0,0.0,0.0,0.04,0.0,0.0,0.0,0.01
1765344903079186184,51789,1765344903077042979,imu_link,-0.0006244123859338631,-0.007406256762750409,0.9677242655853172,-0.25190177305309847,0.010000000000000002,0.0,0.0,0.0,0.010000000000000002,0.0,0.0,0.0,0.010000000000000002,-0.10122909661567113,0.0,0.3193952531149623,0.02,0.0,0.0,0.0,0.02,0.0,0.0,0.0,0.02,-0.006,0.005,1.044,0.04,0.0,0.0,0.0,0.04,0.0,0.0,0.0,0.01
1765344903160505348,51790,1765344903156862318,imu_link,-0.005725214681986414,0.006120158696188428,0.9649126611755298,-0.262437272271939,0.010000000000000002,0.0,0.0,0.0,0.010000000000000002,0.0,0.0,0.0,0.010000000000000002,0.06283185307179587,-0.008726646259971648,0.27227136331111546,0.02,0.0,0.0,0.0,0.02,0.0,0.0,0.0,0.02,-0.008,0.005,1.027,0.04,0.0,0.0,0.0,0.04,0.0,0.0,0.0,0.01
1765344903240604082,51791,1765344903237057675,imu_link,-0.009027094212157206,-0.007396404682317982,0.9618604184980283,-0.27329167586053227,0.010000000000000002,0.0,0.0,0.0,0.010000000000000002,0.0,0.0,0.0,0.010000000000000002,-0.031415926535897934,0.04537856055185257,0.28274333882308134,0.02,0.0,0.0,0.0,0.02,0.0,0.0,0.0,0.02,-0.018000000000000002,-0.01,0.924,0.04,0.0,0.0,0.0,0.04,0.0,0.0,0.0,0.01
1765344903324123486,51792,1765344903315967664,imu_link,-0.0009546794994913861,-0.012055529807741765,0.9590688358352811,-0.2829146884091857,0.010000000000000002,0.0,0.0,0.0,0.010000000000000002,0.0,0.0,0.0,0.010000000000000002,0.08377580409572782,-0.008726646259971648,0.25830872929516074,0.02,0.0,0.0,0.0,0.02,0.0,0.0,0.0,0.02,0.014,-0.061,0.866,0.04,0.0,0.0,0.0,0.04,0.0,0.0,0.0,0.01
1765344903408418459,51793,1765344903396003781,imu_link,0.010340055617905207,-0.008469096793424197,0.9553742754105923,-0.2950954956162631,0.010000000000000002,0.0,0.0,0.0,0.010000000000000002,0.0,0.0,0.0,0.010000000000000002,-0.13962634015954636,-0.03665191429188092,0.3193952531149623,0.02,0.0,0.0,0.0,0.02,0.0,0.0,0.0,0.02,0.021,-0.003,0.8170000000000001,0.04,0.0,0.0,0.0,0.04,0.0,0.0,0.0,0.01
1765344903477804018,51794,1765344903464403101,imu_link,0.012083567802213062,-0.014766514322916872,0.9518333067623416,-0.3060217207679657,0.010000000000000002,0.0,0.0,0.0,0.010000000000000002,0.0,0.0,0.0,0.010000000000000002,0.10471975511965977,-0.061086523819801536,0.3316125578789226,0.02,0.0,0.0,0.0,0.02,0.0,0.0,0.0,0.02,0.007,-0.046,0.866,0.04,0.0,0.0,0.0,0.04,0.0,0.0,0.0,0.01
1765344903549276195,51795,1765344903544013959,imu_link,0.0056952796187452834,-0.003607686822635148,0.947827260209181,-0.3187130891416477,0.010000000000000002,0.0,0.0,0.0,0.010000000000000002,0.0,0.0,0.0,0.010000000000000002,0.024434609527920613,0.0,0.3351032163829113,0.02,0.0,0.0,0.0,0.02,0.0,0.0,0.0,0.02,0.003,0.019,1.057,0.04,0.0,0.0,0.0,0.04,0.0,0.0,0.0,0.01
1765344903626534218,51796,1765344903622871207,imu_link,-0.0013995059660121118,0.0007647233534905819,0.9442568092621304,-0.3292059154136577,0.010000000000000002,0.0,0.0,0.0,0.010000000000000002,0.0,0.0,0.0,0.010000000000000002,-0.06457718232379019,-0.061086523819801536,0.28099800957108706,0.02,0.0,0.0,0.0,0.02,0.0,0.0,0.0,0.02,-0.044,0.051000000000000004,1.059,0.04,0.0,0.0,0.0,0.04,0.0,0.0,0.0,0.01
1765344903701972273,51797,1765344903701652085,imu_link,0.0026913483086025824,0.01021387956402296,0.9402163157041834,-0.34041403172046936,0.010000000000000002,0.0,0.0,0.0,0.010000000000000002,0.0,0.0,0.0,0.010000000000000002,-0.015707963267948967,0.04014257279586959,0.301941960595019,0.02,0.0,0.0,0.0,0.02,0.0,0.0,0.0,0.02,0.024,0.028,1.1380000000000001,0.04,0.0,0.0,0.0,0.04,0.0,0.0,0.0,0.01
1765344903790437912,51798,1765344903782011368,imu_link,-0.008889274234413862,0.008143040597808958,0.9367629493708557,-0.3497568417907268,0.010000000000000002,0.0,0.0,0.0,0.010000000000000002,0.0,0.0,0.0,0.010000000000000002,-0.06981317007977318,0.015707963267948967,0.25132741228718347,0.02,0.0,0.0,0.0,0.02,0.0,0.0,0.0,0.02,-0.022,0.035,1.121,0.04,0.0,0.0,0.0,0.04,0.0,0.0,0.0,0.01
1765344903867269746,51799,1765344903862088818,imu_link,0.0019659788274378072,0.012632568186489375,0.9335085054626344,-0.3583272573740136,0.010000000000000002,0.0,0.0,0.0,0.010000000000000002,0.0,0.0,0.0,0.010000000000000002,-0.05759586531581287,0.0017453292519943296,0.22514747350726852,0.02,0.0,0.0,0.0,0.02,0.0,0.0,0.0,0.02,0.035,0.031,0.964,0.04,0.0,0.0,0.0,0.04,0.0,0.0,0.0,0.01
1765344903965801668,51800,1765344903941088029,imu_link,-0.0038411317231743223,0.0033708855211644555,0.9297291226313927,-0.36820869268520706,0.010000000000000002,0.0,0.0,0.0,0.010000000000000002,0.0,0.0,0.0,0.010000000000000002,-0.02617993877991494,-0.04188790204786391,0.27052603405912107,0.02,0.0,0.0,0.0,0.02,0.0,0.0,0.0,0.02,-0.009000000000000001,0.01,0.9460000000000001,0.04,0.0,0.0,0.0,0.04,0.0,0.0,0.0,0.01
1765344904024143254,51801,1765344904021088369,imu_link,-0.011280438727558522,0.008641095293159148,0.9258424086463424,-0.3776425790693992,0.010000000000000002,0.0,0.0,0.0,0.010000000000000002,0.0,0.0,0.0,0.010000000000000002,-0.08377580409572782,0.003490658503988659,0.25481807079117214,0.02,0.0,0.0,0.0,0.02,0.0,0.0,0.0,0.02,-0.014,0.03,1.056,0.04,0.0,0.0,0.0,0.04,0.0,0.0,0.0,0.01
1765344904105949502,51802,1765344904100733245,imu_link,0.0021964342941222545,0.01632040434166374,0.92253218902614,-0.38556864536571794,0.010000000000000002,0.0,0.0,0.0,0.010000000000000002,0.0,0.0,0.0,0.010000000000000002,0.012217304763960306,-0.08552113334772216,0.21293016874330822,0.02,0.0,0.0,0.0,0.02,0.0,0.0,0.0,0.02,0.019,0.03,1.054,0.04,0.0,0.0,0.0,0.04,0.0,0.0,0.0,0.01
1765344904182871615,51803,1765344904180530233,imu_link,0.012342354850684627,0.014166000340417442,0.9203047250994605,-0.39075082043509707,0.010000000000000002,0.0,0.0,0.0,0.010000000000000002,0.0,0.0,0.0,0.010000000000000002,-0.07155849933176751,0.07853981633974483,0.13613568165555773,0.02,0.0,0.0,0.0,0.02,0.0,0.0,0.0,0.02,0.062,0.016,0.982,0.04,0.0,0.0,0.0,0.04,0.0,0.0,0.0,0.01
1765344904266449548,51804,1765344904260379850,imu_link,0.00757896981275267,0.004362640951760612,0.9188691419028522,-0.3944654948651651,0.010000000000000002,0.0,0.0,0.0,0.010000000000000002,0.0,0.0,0.0,0.010000000000000002,-0.05235987755982988,-0.06632251157578452,0.10122909661567113,0.02,0.0,0.0,0.0,0.02,0.0,0.0,0.0,0.02,-0.028,-0.012,0.935,0.04,0.0,0.0,0.0,0.04,0.0,0.0,0.0,0.01
1765344904345171459,51805,1765344904340180560,imu_link,-0.0015514790787652837,-0.0030797030536205095,0.9172033301663128,-0.3984045173860301,0.010000000000000002,0.0,0.0,0.0,0.010000000000000002,0.0,0.0,0.0,0.010000000000000002,0.017453292519943295,0.0,0.10646508437165411,0.02,0.0,0.0,0.0,0.02,0.0,0.0,0.0,0.02,-0.004,-0.005,0.924,0.04,0.0,0.0,0.0,0.04,0.0,0.0,0.0,0.01
1765344904419565237,51806,1765344904420088288,imu_link,0.0005489747154630119,-0.012248058047570051,0.917048894878226,-0.3985862618097239,0.010000000000000002,0.0,0.0,0.0,0.010000000000000002,0.0,0.0,0.0,0.010000000000000002,0.06457718232379019,0.09250245035569947,0.006981317007977318,0.02,0.0,0.0,0.0,0.02,0.0,0.0,0.0,0.02,-0.001,-0.033,1.08,0.04,0.0,0.0,0.0,0.04,0.0,0.0,0.0,0.01
1765344904500213127,51807,1765344904499793109,imu_link,-0.0055865190240819715,-0.004616423810471715,0.915673806362693,-0.4018568896729938,0.010000000000000002,0.0,0.0,0.0,0.010000000000000002,0.0,0.0,0.0,0.010000000000000002,-0.061086523819801536,0.024434609527920613,0.08726646259971647,0.02,0.0,0.0,0.0,0.02,0.0,0.0,0.0,0.02,-0.015,0.021,1.04,0.04,0.0,0.0,0.0,0.04,0.0,0.0,0.0,0.01
1765344905123025412,51808,1765344904580012448,imu_link,-0.005641346134812328,0.006411136109881294,0.9158058655108581,-0.4015304337699397,0.010000000000000002,0.0,0.0,0.0,0.010000000000000002,0.0,0.0,0.0,0.010000000000000002,-0.017453292519943295,0.022689280275926284,-0.010471975511965978,0.02,0.0,0.0,0.0,0.02,0.0,0.0,0.0,0.02,-0.001,0.026000000000000002,1.1460000000000001,0.04,0.0,0.0,0.0,0.04,0.0,0.0,0.0,0.01
1765344905123029258,51809,1765344904660036676,imu_link,0.004885102717749254,-0.004405194889617845,0.9159403132931562,-0.4012606042385128,0.010000000000000002,0.0,0.0,0.0,0.010000000000000002,0.0,0.0,0.0,0.010000000000000002,-0.061086523819801536,-0.06283185307179587,-0.006981317007977318,0.02,0.0,0.0,0.0,0.02,0.0,0.0,0.0,0.02,0.005,-0.026000000000000002,0.919,0.04,0.0,0.0,0.0,0.04,0.0,0.0,0.0,0.01
1765344905123034972,51810,1765344904728410736,imu_link,-0.0037063511668782322,-0.002666760994832803,0.9166393578642603,-0.399689177938333,0.010000000000000002,0.0,0.0,0.0,0.010000000000000002,0.0,0.0,0.0,0.010000000000000002,0.054105206811824215,-0.07504915783575616,-0.05235987755982988,0.02,0.0,0.0,0.0,0.02,0.0,0.0,0.0,0.02,-0.018000000000000002,-0.004,0.97,0.04,0.0,0.0,0.0,0.04,0.0,0.0,0.0,0.01
1765344905142644298,51811,1765344904808035909,imu_link,-0.01442004286402381,0.006136509332967679,0.9171290441379969,-0.3982822140336299,0.010000000000000002,0.0,0.0,0.0,0.010000000000000002,0.0,0.0,0.0,0.010000000000000002,0.048869219055841226,0.010471975511965978,-0.038397243543875255,0.02,0.0,0.0,0.0,0.02,0.0,0.0,0.0,0.02,-0.02,0.015,1.154,0.04,0.0,0.0,0.0,0.04,0.0,0.0,0.0,0.01
1765344905142650938,51812,1765344904886880695,imu_link,-0.006509791450317648,0.0010244076958118586,0.9189568014084208,-0.3943031452440502,0.010000000000000002,0.0,0.0,0.0,0.010000000000000002,0.0,0.0,0.0,0.010000000000000002,0.08028514559173917,-0.020943951023931956,-0.10821041362364843,0.02,0.0,0.0,0.0,0.02,0.0,0.0,0.0,0.02,-0.006,-0.013000000000000001,0.916,0.04,0.0,0.0,0.0,0.04,0.0,0.0,0.0,0.01
1765344905142889014,51813,1765344904965544499,imu_link,-0.016911215259940264,0.007831602804785516,0.9206184820384348,-0.3900183166534467,0.010000000000000002,0.0,0.0,0.0,0.010000000000000002,0.0,0.0,0.0,0.010000000000000002,0.04537856055185257,-0.031415926535897934,-0.11693705988362009,0.02,0.0,0.0,0.0,0.02,0.0,0.0,0.0,0.02,-0.033,0.03,1.049,0.04,0.0,0.0,0.0,0.04,0.0,0.0,0.0,0.01
1765344905142910785,51814,1765344905045586338,imu_link,-0.00826323933297253,-0.006943622353906359,0.9237444164327788,-0.382857359983581,0.010000000000000002,0.0,0.0,0.0,0.010000000000000002,0.0,0.0,0.0,0.010000000000000002,-0.13962634015954636,0.04537856055185257,-0.1954768762233649,0.02,0.0,0.0,0.0,0.02,0.0,0.0,0.0,0.02,-0.014,0.001,0.915,0.04,0.0,0.0,0.0,0.04,0.0,0.0,0.0,0.01
1765344905143268493,51815,1765344905125771121,imu_link,0.0019426650698875683,-0.00472820988943393,0.9274920651687528,-0.3738078906773772,0.010000000000000002,0.0,0.0,0.0,0.010000000000000002,0.0,0.0,0.0,0.010000000000000002,0.006981317007977318,0.04014257279586959,-0.24260076602721178,0.02,0.0,0.0,0.0,0.02,0.0,0.0,0.0,0.02,-0.005,-0.008,0.885,0.04,0.0,0.0,0.0,0.04,0.0,0.0,0.0,0.01
1765344905208641484,51816,1765344905205080628,imu_link,0.0036521335450615793,0.00937202451190828,0.9300247046781822,-0.3673593278594911,0.010000000000000002,0.0,0.0,0.0,0.010000000000000002,0.0,0.0,0.0,0.010000000000000002,0.031415926535897934,-0.06981317007977318,-0.17453292519943295,0.02,0.0,0.0,0.0,0.02,0.0,0.0,0.0,0.02,0.007,0.008,1.092,0.04,0.0,0.0,0.0,0.04,0.0,0.0,0.0,0.01
1765344905289956139,51817,1765344905285055689,imu_link,-0.006389871454390193,0.0011525895923699128,0.9326948337540917,-0.3606080811191771,0.010000000000000002,0.0,0.0,0.0,0.010000000000000002,0.0,0.0,0.0,0.010000000000000002,-0.031415926535897934,0.015707963267948967,-0.17976891295541597,0.02,0.0,0.0,0.0,0.02,0.0,0.0,0.0,0.02,-0.006,0.01,0.993,0.04,0.0,0.0,0.0,0.04,0.0,0.0,0.0,0.01
1765344905392215480,51818,1765344905364441122,imu_link,0.002436923080809197,0.00020753163069464568,0.9355022842292327,-0.3533121771725516,0.010000000000000002,0.0,0.0,0.0,0.010000000000000002,0.0,0.0,0.0,0.010000000000000002,0.027925268031909273,0.07155849933176751,-0.19722220547535924,0.02,0.0,0.0,0.0,0.02,0.0,0.0,0.0,0.02,-0.003,0.003,1.07,0.04,0.0,0.0,0.0,0.04,0.0,0.0,0.0,0.01
1765344905450741855,51819,1765344905444888034,imu_link,0.0051003862943430674,0.010692624527209232,0.9389973609924894,-0.3437202494609664,0.010000000000000002,0.0,0.0,0.0,0.010000000000000002,0.0,0.0,0.0,0.010000000000000002,-0.019198621771937627,0.027925268031909273,-0.2530727415391778,0.02,0.0,0.0,0.0,0.02,0.0,0.0,0.0,0.02,0.021,0.019,1.149,0.04,0.0,0.0,0.0,0.04,0.0,0.0,0.0,0.01
1765344905529378188,51820,1765344905524874133,imu_link,0.013050802255640894,0.015575677304586533,0.9418616425217854,-0.3353859287196648,0.010000000000000002,0.0,0.0,0.0,0.010000000000000002,0.0,0.0,0.0,0.010000000000000002,-0.06457718232379019,0.048869219055841226,-0.22165681500327988,0.02,0.0,0.0,0.0,0.02,0.0,0.0,0.0,0.02,0.04,0.027,1.1460000000000001,0.04,0.0,0.0,0.0,0.04,0.0,0.0,0.0,0.01
1765344905616604171,51821,1765344905603904233,imu_link,0.004513660856279619,0.012860009711054754,0.9437374718422532,-0.3304146353548803,0.010000000000000002,0.0,0.0,0.0,0.010000000000000002,0.0,0.0,0.0,0.010000000000000002,0.05934119456780721,-0.06981317007977318,-0.13264502315156904,0.02,0.0,0.0,0.0,0.02,0.0,0.0,0.0,0.02,-0.018000000000000002,0.012,1.082,0.04,0.0,0.0,0.0,0.04,0.0,0.0,0.0,0.01
1765344905688839626,51822,1765344905683715498,imu_link,-0.008858329928564636,0.006188097239073922,0.946825270355766,-0.32156670359222045,0.010000000000000002,0.0,0.0,0.0,0.010000000000000002,0.0,0.0,0.0,0.010000000000000002,0.04537856055185257,0.08377580409572782,-0.23387411976724018,0.02,0.0,0.0,0.0,0.02,0.0,0.0,0.0,0.02,-0.015,0.01,0.9590000000000001,0.04,0.0,0.0,0.0,0.04,0.0,0.0,0.0,0.01
1765344905774604511,51823,1765344905763544763,imu_link,-0.017162324796642127,0.0006086745046047525,0.9504656745905286,-0.31035477368343056,0.010000000000000002,0.0,0.0,0.0,0.010000000000000002,0.0,0.0,0.0,0.010000000000000002,0.06981317007977318,-0.029670597283903605,-0.291469985083053,0.02,0.0,0.0,0.0,0.02,0.0,0.0,0.0,0.02,-0.048,-0.002,0.92,0.04,0.0,0.0,0.0,0.04,0.0,0.0,0.0,0.01
1765344905849993859,51824,1765344905843893398,imu_link,-0.00784960270871459,0.004307657339801963,0.9529956892392374,-0.302851521569546,0.010000000000000002,0.0,0.0,0.0,0.010000000000000002,0.0,0.0,0.0,0.010000000000000002,-0.04188790204786391,0.04363323129985824,-0.20071286397934787,0.02,0.0,0.0,0.0,0.02,0.0,0.0,0.0,0.02,0.008,0.022,1.105,0.04,0.0,0.0,0.0,0.04,0.0,0.0,0.0,0.01
1765344905938891718,51825,1765344905923256497,imu_link,0.0019272475514007907,0.0008069477025253829,0.95718641257174,-0.2894646889351511,0.010000000000000002,0.0,0.0,0.0,0.010000000000000002,0.0,0.0,0.0,0.010000000000000002,0.008726646259971648,0.04014257279586959,-0.35430183815484895,0.02,0.0,0.0,0.0,0.02,0.0,0.0,0.0,0.02,-0.006,0.009000000000000001,1.05,0.04,0.0,0.0,0.0,0.04,0.0,0.0,0.0,0.01
1765344906007767271,51826,1765344905993031741,imu_link,-0.004567885284126614,-0.002326833936733882,0.9597089252070966,-0.28094928215907816,0.010000000000000002,0.0,0.0,0.0,0.010000000000000002,0.0,0.0,0.0,0.010000000000000002,0.06283185307179587,-0.08028514559173917,-0.25481807079117214,0.02,0.0,0.0,0.0,0.02,0.0,0.0,0.0,0.02,-0.051000000000000004,-0.018000000000000002,0.92,0.04,0.0,0.0,0.0,0.04,0.0,0.0,0.0,0.01
1765344906076791349,51827,1765344906072103063,imu_link,-0.011310576563038494,0.007886061392239362,0.9626950253566607,-0.2702372458545781,0.010000000000000002,0.0,0.0,0.0,0.010000000000000002,0.0,0.0,0.0,0.010000000000000002,0.017453292519943295,-0.017453292519943295,-0.28274333882308134,0.02,0.0,0.0,0.0,0.02,0.0,0.0,0.0,0.02,-0.017,0.014,1.072,0.04,0.0,0.0,0.0,0.04,0.0,0.0,0.0,0.01
1765344906159718919,51828,1765344906150406627,imu_link,-0.01065458852528237,-0.003139596667098372,0.9654640169381097,-0.2602995479708986,0.010000000000000002,0.0,0.0,0.0,0.010000000000000002,0.0,0.0,0.0,0.010000000000000002,-0.05759586531581287,-0.1518436449235067,-0.25830872929516074,0.02,0.0,0.0,0.0,0.02,0.0,0.0,0.0,0.02,-0.039,-0.003,0.9490000000000001,0.04,0.0,0.0,0.0,0.04,0.0,0.0,0.0,0.01
1765344906232111490,51829,1765344906229426042,imu_link,-0.017715716933511354,4.167106714672886e-05,0.9678018061941414,-0.2510892581621355,0.010000000000000002,0.0,0.0,0.0,0.010000000000000002,0.0,0.0,0.0,0.010000000000000002,0.05585053606381855,-0.13962634015954636,-0.24085543677521748,0.02,0.0,0.0,0.0,0.02,0.0,0.0,0.0,0.02,-0.068,0.011,0.9460000000000001,0.04,0.0,0.0,0.0,0.04,0.0,0.0,0.0,0.01
1765344906313017452,51830,1765344906308945530,imu_link,-0.00837594803004761,-0.005066443209098381,0.970805800923865,-0.23966700135892732,0.010000000000000002,0.0,0.0,0.0,0.010000000000000002,0.0,0.0,0.0,0.010000000000000002,-0.03665191429188092,0.06806784082777886,-0.29670597283903605,0.02,0.0,0.0,0.0,0.02,0.0,0.0,0.0,0.02,-0.016,0.0,0.917,0.04,0.0,0.0,0.0,0.04,0.0,0.0,0.0,0.01
1765344906391195739,51831,1765344906388750666,imu_link,-0.02035549288013445,-0.005160135515952245,0.9729280410759612,-0.23015224048259078,0.010000000000000002,0.0,0.0,0.0,0.010000000000000002,0.0,0.0,0.0,0.010000000000000002,-0.013962634015954637,0.005235987755982989,-0.24609142453120048,0.02,0.0,0.0,0.0,0.02,0.0,0.0,0.0,0.02,-0.026000000000000002,-0.003,0.9470000000000001,0.04,0.0,0.0,0.0,0.04,0.0,0.0,0.0,0.01
1765344906471673787,51832,1765344906468567542,imu_link,-0.00862221993937807,-0.007270527275331767,0.9751886945823829,-0.22108778056501352,0.010000000000000002,0.0,0.0,0.0,0.010000000000000002,0.0,0.0,0.0,0.010000000000000002,-0.013962634015954637,0.008726646259971648,-0.23212879051524585,0.02,0.0,0.0,0.0,0.02,0.0,0.0,0.0,0.02,0.006,-0.017,0.9580000000000001,0.04,0.0,0.0,0.0,0.04,0.0,0.0,0.0,0.01
1765344906547345989,51833,1765344906548459437,imu_link,-0.01991438404269127,-0.0023988845836254193,0.9770831879589079,-0.2119106096188018,0.010000000000000002,0.0,0.0,0.0,0.010000000000000002,0.0,0.0,0.0,0.010000000000000002,0.1308996938995747,-0.04537856055185257,-0.23561944901923448,0.02,0.0,0.0,0.0,0.02,0.0,0.0,0.0,0.02,-0.06,-0.004,1.06,0.04,0.0,0.0,0.0,0.04,0.0,0.0,0.0,0.01
1765344906629404889,51834,1765344906629018275,imu_link,-0.00885894712248007,-0.004361290509891209,0.9796692455792836,-0.2003763146359538,0.010000000000000002,0.0,0.0,0.0,0.010000000000000002,0.0,0.0,0.0,0.010000000000000002,-0.029670597283903605,0.03316125578789226,-0.2932153143350474,0.02,0.0,0.0,0.0,0.02,0.0,0.0,0.0,0.02,-0.018000000000000002,-0.002,1.083,0.04,0.0,0.0,0.0,0.04,0.0,0.0,0.0,0.01
1765344906709087104,51835,1765344906708140319,imu_link,-0.006918206305423309,0.006639158516841019,0.981669594468039,-0.19034932963543516,0.010000000000000002,0.0,0.0,0.0,0.010000000000000002,0.0,0.0,0.0,0.010000000000000002,0.017453292519943295,0.06632251157578452,-0.26005405854715513,0.02,0.0,0.0,0.0,0.02,0.0,0.0,0.0,0.02,-0.012,0.006,1.03,0.04,0.0,0.0,0.0,0.04,0.0,0.0,0.0,0.01
1765344906805123337,51836,1765344906788016603,imu_link,0.004824612891119253,-0.0013938335007462536,0.9833988691240124,-0.1813875534435495,0.010000000000000002,0.0,0.0,0.0,0.010000000000000002,0.0,0.0,0.0,0.010000000000000002,-0.029670597283903605,-0.050614548307835565,-0.22863813201125718,0.02,0.0,0.0,0.0,0.02,0.0,0.0,0.0,0.02,0.014,-0.012,1.0010000000000001,0.04,0.0,0.0,0.0,0.04,0.0,0.0,0.0,0.01
1765344906878071916,51837,1765344906867702943,imu_link,-0.0006120389172037022,0.008532533510659208,0.9847788322500228,-0.17360147704594725,0.010000000000000002,0.0,0.0,0.0,0.010000000000000002,0.0,0.0,0.0,0.010000000000000002,-0.020943951023931956,0.010471975511965978,-0.19722220547535924,0.02,0.0,0.0,0.0,0.02,0.0,0.0,0.0,0.02,0.004,0.012,0.9400000000000001,0.04,0.0,0.0,0.0,0.04,0.0,0.0,0.0,0.01
1765344906954958251,51838,1765344906947509282,imu_link,-0.004571998978819932,-0.0047110474096386,0.9868562178251881,-0.1614673595418176,0.010000000000000002,0.0,0.0,0.0,0.010000000000000002,0.0,0.0,0.0,0.010000000000000002,-0.05934119456780721,-0.012217304763960306,-0.30717794835100204,0.02,0.0,0.0,0.0,0.02,0.0,0.0,0.0,0.02,-0.025,-0.024,0.977,0.04,0.0,0.0,0.0,0.04,0.0,0.0,0.0,0.01
1765344907027564351,51839,1765344907027891195,imu_link,-0.010577605630728926,-0.009721630689704242,0.9883551886884736,-0.1514847356944766,0.010000000000000002,0.0,0.0,0.0,0.010000000000000002,0.0,0.0,0.0,0.010000000000000002,0.06457718232379019,-0.08377580409572782,-0.25132741228718347,0.02,0.0,0.0,0.0,0.02,0.0,0.0,0.0,0.02,-0.045,-0.03,1.04,0.04,0.0,0.0,0.0,0.04,0.0,0.0,0.0,0.01
1765344907110993780,51840,1765344907107174183,imu_link,-0.020136700814756846,-0.005189495297971195,0.9892398980029041,-0.14481714890873051,0.010000000000000002,0.0,0.0,0.0,0.010000000000000002,0.0,0.0,0.0,0.010000000000000002,-0.05759586531581287,0.006981317007977318,-0.17453292519943295,0.02,0.0,0.0,0.0,0.02,0.0,0.0,0.0,0.02,-0.055,0.015,0.983,0.04,0.0,0.0,0.0,0.04,0.0,0.0,0.0,0.01
1765344907186769654,51841,1765344907187027374,imu_link,-0.009788100241207777,-0.006801436601695968,0.9907667113764556,-0.13505279405515613,0.010000000000000002,0.0,0.0,0.0,0.010000000000000002,0.0,0.0,0.0,0.010000000000000002,-0.020943951023931956,0.04537856055185257,-0.24609142453120048,0.02,0.0,0.0,0.0,0.02,0.0,0.0,0.0,0.02,0.038,-0.018000000000000002,0.982,0.04,0.0,0.0,0.0,0.04,0.0,0.0,0.0,0.01
1765344907357417033,51842,1765344907256417248,imu_link,0.005623049156700086,-0.008343581345679116,0.9919039184426611,-0.1265913999709451,0.010000000000000002,0.0,0.0,0.0,0.010000000000000002,0.0,0.0,0.0,0.010000000000000002,-0.09424777960769379,-0.13264502315156904,-0.24609142453120048,0.02,0.0,0.0,0.0,0.02,0.0,0.0,0.0,0.02,0.022,-0.012,1.0150000000000001,0.04,0.0,0.0,0.0,0.04,0.0,0.0,0.0,0.01
1765344907372892422,51843,1765344907336022551,imu_link,-0.0010242250914092002,-0.01262178550089194,0.9928193985956194,-0.11895075983769109,0.010000000000000002,0.0,0.0,0.0,0.010000000000000002,0.0,0.0,0.0,0.010000000000000002,0.10646508437165411,-0.048869219055841226,-0.19722220547535924,0.02,0.0,0.0,0.0,0.02,0.0,0.0,0.0,0.02,-0.034,-0.046,0.686,0.04,0.0,0.0,0.0,0.04,0.0,0.0,0.0,0.01
1765344907414350617,51844,1765344907414418522,imu_link,-0.010444856361185634,-0.006244761529803935,0.9936688305967978,-0.11168779266071303,0.010000000000000002,0.0,0.0,0.0,0.010000000000000002,0.0,0.0,0.0,0.010000000000000002,0.013962634015954637,-0.020943951023931956,-0.19024088846738194,0.02,0.0,0.0,0.0,0.02,0.0,0.0,0.0,0.02,-0.055,0.011,1.0230000000000001,0.04,0.0,0.0,0.0,0.04,0.0,0.0,0.0,0.01
1765344907496609858,51845,1765344907493563140,imu_link,-0.0010952841519387328,-0.002936896673903034,0.9947149423321273,-0.10262727947161941,0.010000000000000002,0.0,0.0,0.0,0.010000000000000002,0.0,0.0,0.0,0.010000000000000002,0.1117010721276371,0.05235987755982988,-0.22689280275926285,0.02,0.0,0.0,0.0,0.02,0.0,0.0,0.0,0.02,0.007,-0.014,0.913,0.04,0.0,0.0,0.0,0.04,0.0,0.0,0.0,0.01
1765344907579478258,51846,1765344907572830407,imu_link,0.012815131171905005,-0.004467676015239138,0.9946874951839426,-0.10204214427756825,0.010000000000000002,0.0,0.0,0.0,0.010000000000000002,0.0,0.0,0.0,0.010000000000000002,-0.05934119456780721,-0.04537856055185257,-0.013962634015954637,0.02,0.0,0.0,0.0,0.02,0.0,0.0,0.0,0.02,0.002,-0.006,1.028,0.04,0.0,0.0,0.0,0.04,0.0,0.0,0.0,0.01
1765344907652172542,51847,1765344907652655450,imu_link,0.00128356427603166,0.00042687461470766015,0.9948308607470854,-0.10153683442980682,0.010000000000000002,0.0,0.0,0.0,0.010000000000000002,0.0,0.0,0.0,0.010000000000000002,0.048869219055841226,-0.006981317007977318,-0.013962634015954637,0.02,0.0,0.0,0.0,0.02,0.0,0.0,0.0,0.02,-0.012,0.002,0.92,0.04,0.0,0.0,0.0,0.04,0.0,0.0,0.0,0.01
1765344907737092176,51848,1765344907732558826,imu_link,-0.011414781297473338,-0.00617921004888017,0.9946263808422318,-0.10271262173553247,0.010000000000000002,0.0,0.0,0.0,0.010000000000000002,0.0,0.0,0.0,0.010000000000000002,0.005235987755982989,0.06632251157578452,0.029670597283903605,0.02,0.0,0.0,0.0,0.02,0.0,0.0,0.0,0.02,-0.012,-0.007,1.061,0.04,0.0,0.0,0.0,0.04,0.0,0.0,0.0,0.01
1765344907812705333,51849,1765344907812318499,imu_link,0.003321048940993098,-0.011517194881381546,0.9943716052271913,-0.10526839779295054,0.010000000000000002,0.0,0.0,0.0,0.010000000000000002,0.0,0.0,0.0,0.010000000000000002,-0.04537856055185257,-0.08203047484373349,0.06632251157578452,0.02,0.0,0.0,0.0,0.02,0.0,0.0,0.0,0.02,0.013000000000000001,-0.026000000000000002,0.9490000000000001,0.04,0.0,0.0,0.0,0.04,0.0,0.0,0.0,0.01
1765344907895822103,51850,1765344907892696930,imu_link,0.007301698458819319,-0.02077990834520362,0.9939664565327913,-0.10745028569728511,0.010000000000000002,0.0,0.0,0.0,0.010000000000000002,0.0,0.0,0.0,0.010000000000000002,0.04363323129985824,0.024434609527920613,0.05585053606381855,0.02,0.0,0.0,0.0,0.02,0.0,0.0,0.0,0.02,0.006,-0.028,0.935,0.04,0.0,0.0,0.0,0.04,0.0,0.0,0.0,0.01
1765344907985239998,51851,1765344907971968363,imu_link,0.0004720674505875957,-0.008372111589890516,0.9933659333428367,-0.1146900491488403,0.010000000000000002,0.0,0.0,0.0,0.010000000000000002,0.0,0.0,0.0,0.010000000000000002,0.04537856055185257,0.04014257279586959,0.1832595714594046,0.02,0.0,0.0,0.0,0.02,0.0,0.0,0.0,0.02,0.003,-0.021,0.971,0.04,0.0,0.0,0.0,0.04,0.0,0.0,0.0,0.01
1765344908064809711,51852,1765344908051793258,imu_link,-0.00025981555669480705,0.0023491713005148653,0.9925735931272324,-0.12162267928545473,0.010000000000000002,0.0,0.0,0.0,0.010000000000000002,0.0,0.0,0.0,0.010000000000000002,-0.031415926535897934,-0.013962634015954637,0.17453292519943295,0.02,0.0,0.0,0.0,0.02,0.0,0.0,0.0,0.02,-0.001,0.005,1.028,0.04,0.0,0.0,0.0,0.04,0.0,0.0,0.0,0.01
1765344908151539875,51853,1765344908131603671,imu_link,-0.009715466640278256,-0.004216797083638901,0.9912368255502723,-0.13167150034588387,0.010000000000000002,0.0,0.0,0.0,0.010000000000000002,0.0,0.0,0.0,0.010000000000000002,-0.05934119456780721,-0.03490658503988659,0.25481807079117214,0.02,0.0,0.0,0.0,0.02,0.0,0.0,0.0,0.02,-0.005,0.003,0.914,0.04,0.0,0.0,0.0,0.04,0.0,0.0,0.0,0.01
1765344908223377454,51854,1765344908211886547,imu_link,-0.015424859717454609,0.0031992145817102136,0.9896589109802668,-0.14257306423763771,0.010000000000000002,0.0,0.0,0.0,0.010000000000000002,0.0,0.0,0.0,0.010000000000000002,-0.07330382858376185,-0.010471975511965978,0.27052603405912107,0.02,0.0,0.0,0.0,0.02,0.0,0.0,0.0,0.02,-0.028,0.005,1.117,0.04,0.0,0.0,0.0,0.04,0.0,0.0,0.0,0.01
1765344908346880823,51855,1765344908291820201,imu_link,-0.0024656081173967358,0.0021962217618286296,0.987541269813248,-0.15732557898263796,0.010000000000000002,0.0,0.0,0.0,0.010000000000000002,0.0,0.0,0.0,0.010000000000000002,-0.02617993877991494,-0.019198621771937627,0.3717551306747922,0.02,0.0,0.0,0.0,0.02,0.0,0.0,0.0,0.02,0.039,-0.001,0.994,0.04,0.0,0.0,0.0,0.04,0.0,0.0,0.0,0.01
1765344908376129797,51856,1765344908371125301,imu_link,0.0015310040609112247,-0.009256009822098234,0.9852823667448649,-0.1706770051599695,0.010000000000000002,0.0,0.0,0.0,0.010000000000000002,0.0,0.0,0.0,0.010000000000000002,-0.003490658503988659,-0.017453292519943295,0.3420845333908886,0.02,0.0,0.0,0.0,0.02,0.0,0.0,0.0,0.02,0.0,-0.027,0.911,0.04,0.0,0.0,0.0,0.04,0.0,0.0,0.0,0.01
1765344908470614018,51857,1765344908450887362,imu_link,-0.007540556137941974,-0.017131114450942148,0.9832783571607379,-0.18114452039760787,0.010000000000000002,0.0,0.0,0.0,0.010000000000000002,0.0,0.0,0.0,0.010000000000000002,0.031415926535897934,0.020943951023931956,0.26529004630313807,0.02,0.0,0.0,0.0,0.02,0.0,0.0,0.0,0.02,-0.024,-0.038,1.0130000000000001,0.04,0.0,0.0,0.0,0.04,0.0,0.0,0.0,0.01
1765344908529649799,51858,1765344908531030627,imu_link,0.003932673870856963,-0.011952500757479221,0.9805919745362803,-0.1956554401924641,0.010000000000000002,0.0,0.0,0.0,0.010000000000000002,0.0,0.0,0.0,0.010000000000000002,0.0,-0.019198621771937627,0.3717551306747922,0.02,0.0,0.0,0.0,0.02,0.0,0.0,0.0,0.02,0.058,-0.01,0.9400000000000001,0.04,0.0,0.0,0.0,0.04,0.0,0.0,0.0,0.01
1765344908617996508,51859,1765344908599906632,imu_link,0.00012448855122362641,-0.004015641956281331,0.9781878567558213,-0.2076833551773769,0.010000000000000002,0.0,0.0,0.0,0.010000000000000002,0.0,0.0,0.0,0.010000000000000002,-0.02617993877991494,-0.06283185307179587,0.35430183815484895,0.02,0.0,0.0,0.0,0.02,0.0,0.0,0.0,0.02,-0.026000000000000002,0.038,1.139,0.04,0.0,0.0,0.0,0.04,0.0,0.0,0.0,0.01
1765344908680428053,51860,1765344908678422751,imu_link,-0.010122497070374385,-0.008858594533542267,0.975462387933585,-0.21975484086330974,0.010000000000000002,0.0,0.0,0.0,0.010000000000000002,0.0,0.0,0.0,0.010000000000000002,0.015707963267948967,-0.008726646259971648,0.3141592653589793,0.02,0.0,0.0,0.0,0.02,0.0,0.0,0.0,0.02,-0.032,-0.017,1.051,0.04,0.0,0.0,0.0,0.04,0.0,0.0,0.0,0.01
1765344908758392321,51861,1765344908757601962,imu_link,-0.011601226203454922,0.005910894974583962,0.972271848101439,-0.23349074127379868,0.010000000000000002,0.0,0.0,0.0,0.010000000000000002,0.0,0.0,0.0,0.010000000000000002,0.07679448708775051,0.024434609527920613,0.35430183815484895,0.02,0.0,0.0,0.0,0.02,0.0,0.0,0.0,0.02,-0.015,0.027,1.064,0.04,0.0,0.0,0.0,0.04,0.0,0.0,0.0,0.01
1765344908863364680,51862,1765344908863280187,imu_link,-0.009588378030441751,-0.009920763384694631,0.9676839541707049,-0.25178841574059696,0.010000000000000002,0.0,0.0,0.0,0.010000000000000002,0.0,0.0,0.0,0.010000000000000002,-0.003490658503988659,0.04363323129985824,0.35953782591083194,0.02,0.0,0.0,0.0,0.02,0.0,0.0,0.0,0.02,-0.019,-0.028,1.0210000000000001,0.04,0.0,0.0,0.0,0.04,0.0,0.0,0.0,0.01
1765344908921170644,51863,1765344908916886345,imu_link,-0.010118714763831993,-0.0014221859196654326,0.9638624628142121,-0.2662043233616987,0.010000000000000002,0.0,0.0,0.0,0.010000000000000002,0.0,0.0,0.0,0.010000000000000002,0.008726646259971648,-0.019198621771937627,0.5532693728822025,0.02,0.0,0.0,0.0,0.02,0.0,0.0,0.0,0.02,0.0,0.138,0.994,0.04,0.0,0.0,0.0,0.04,0.0,0.0,0.0,0.01
1765344909001343963,51864,1765344908997033813,imu_link,-0.01044543785125248,0.011420426896985884,0.9580480904920909,-0.28618931318629726,0.010000000000000002,0.0,0.0,0.0,0.010000000000000002,0.0,0.0,0.0,0.010000000000000002,0.015707963267948967,0.0,0.5166174585903215,0.02,0.0,0.0,0.0,0.02,0.0,0.0,0.0,0.02,-0.01,0.036000000000000004,0.934,0.04,0.0,0.0,0.0,0.04,0.0,0.0,0.0,0.01
1765344909077720629,51865,1765344909076890541,imu_link,0.001931227867747575,0.01657252691377343,0.9529797861662637,-0.3025742039056159,0.010000000000000002,0.0,0.0,0.0,0.010000000000000002,0.0,0.0,0.0,0.010000000000000002,0.019198621771937627,-0.027925268031909273,0.42586033748661645,0.02,0.0,0.0,0.0,0.02,0.0,0.0,0.0,0.02,0.031,0.03,1.0110000000000001,0.04,0.0,0.0,0.0,0.04,0.0,0.0,0.0,0.01
1765344909162544031,51866,1765344909156034752,imu_link,-0.009396647187084429,0.00984385653449639,0.9480104603748449,-0.31794805948463384,0.010000000000000002,0.0,0.0,0.0,0.010000000000000002,0.0,0.0,0.0,0.010000000000000002,-0.010471975511965978,0.03665191429188092,0.4118977034706618,0.02,0.0,0.0,0.0,0.02,0.0,0.0,0.0,0.02,-0.019,0.024,1.0210000000000001,0.04,0.0,0.0,0.0,0.04,0.0,0.0,0.0,0.01
1765344909242028392,51867,1765344909236030203,imu_link,-0.0009794233186059824,0.0026693009007410793,0.9416697886062154,-0.33652626166317184,0.010000000000000002,0.0,0.0,0.0,0.010000000000000002,0.0,0.0,0.0,0.010000000000000002,0.020943951023931956,0.012217304763960306,0.4904375198104066,0.02,0.0,0.0,0.0,0.02,0.0,0.0,0.0,0.02,-0.001,0.006,0.975,0.04,0.0,0.0,0.0,0.04,0.0,0.0,0.0,0.01
1765344909315416044,51868,1765344909315564579,imu_link,0.005019151339465738,-0.007127547411233188,0.9416592829093009,-0.33645475341934683,0.010000000000000002,0.0,0.0,0.0,0.010000000000000002,0.0,0.0,0.0,0.010000000000000002,0.012217304763960306,-0.003490658503988659,-0.0017453292519943296,0.02,0.0,0.0,0.0,0.02,0.0,0.0,0.0,0.02,0.005,-0.021,1.016,0.04,0.0,0.0,0.0,0.04,0.0,0.0,0.0,0.01
1765344909397613537,51869,1765344909396043010,imu_link,0.006140643524244049,-0.019144612981684357,0.9414871115080605,-0.336448800198631,0.010000000000000002,0.0,0.0,0.0,0.010000000000000002,0.0,0.0,0.0,0.010000000000000002,0.0,0.0,0.0,0.02,0.0,0.0,0.0,0.02,0.0,0.0,0.0,0.02,0.003,-0.023,0.995,0.04,0.0,0.0,0.0,0.04,0.0,0.0,0.0,0.01
1765344909480001898,51870,1765344909475597313,imu_link,0.0006642891472937167,-0.00845003297138915,0.9416304729577526,-0.3365415398729706,0.010000000000000002,0.0,0.0,0.0,0.010000000000000002,0.0,0.0,0.0,0.010000000000000002,0.0017453292519943296,0.0,0.0,0.02,0.0,0.0,0.0,0.02,0.0,0.0,0.0,0.02,-0.005,-0.012,0.999,0.04,0.0,0.0,0.0,0.04,0.0,0.0,0.0,0.01
1765344909611873660,51871,1765344909555126561,imu_link,-0.004735499503163193,0.002186868093658421,0.9416385105213635,-0.33658536533174516,0.010000000000000002,0.0,0.0,0.0,0.010000000000000002,0.0,0.0,0.0,0.010000000000000002,0.0,0.0,0.0,0.02,0.0,0.0,0.0,0.02,0.0,0.0,0.0,0.02,-0.006,-0.004,1.002,0.04,0.0,0.0,0.0,0.04,0.0,0.0,0.0,0.01
1765344909634585577,51872,1765344909634825696,imu_link,0.0020229859342794326,-0.0078520327754416,0.9416310421731597,-0.33654900612703104,0.010000000000000002,0.0,0.0,0.0,0.010000000000000002,0.0,0.0,0.0,0.010000000000000002,-0.003490658503988659,0.0,0.0,0.02,0.0,0.0,0.0,0.02,0.0,0.0,0.0,0.02,-0.004,-0.006,1.0,0.04,0.0,0.0,0.0,0.04,0.0,0.0,0.0,0.01
1765344909719199559,51873,1765344909714773832,imu_link,-0.0009348540072135323,0.003700349624863501,0.9416551541907678,-0.3365575790954652,0.010000000000000002,0.0,0.0,0.0,0.010000000000000002,0.0,0.0,0.0,0.010000000000000002,-0.0017453292519943296,0.0,0.0,0.02,0.0,0.0,0.0,0.02,0.0,0.0,0.0,0.02,-0.001,-0.011,1.0,0.04,0.0,0.0,0.0,0.04,0.0,0.0,0.0,0.01
1765344909794391402,51874,1765344909794769227,imu_link,-0.0010203557432852126,-0.0083829353828221,0.9416323602294862,-0.33653704615862345,0.010000000000000002,0.0,0.0,0.0,0.010000000000000002,0.0,0.0,0.0,0.010000000000000002,-0.0017453292519943296,0.0,0.0,0.02,0.0,0.0,0.0,0.02,0.0,0.0,0.0,0.02,-0.005,-0.008,1.0010000000000001,0.04,0.0,0.0,0.0,0.04,0.0,0.0,0.0,0.01
1765344909863730628,51875,1765344909864037934,imu_link,0.0009052106795714184,0.0018422087973246333,0.9416658757488392,-0.33654296205766154,0.010000000000000002,0.0,0.0,0.0,0.010000000000000002,0.0,0.0,0.0,0.010000000000000002,0.0,0.0,0.0,0.02,0.0,0.0,0.0,0.02,0.0,0.0,0.0,0.02,-0.004,-0.009000000000000001,0.999,0.04,0.0,0.0,0.0,0.04,0.0,0.0,0.0,0.01
1765344909969878880,51876,1765344909942433998,imu_link,-0.0026040430876234175,-0.009394590015624201,0.9416218630798685,-0.33653116885072243,0.010000000000000002,0.0,0.0,0.0,0.010000000000000002,0.0,0.0,0.0,0.010000000000000002,0.0,0.0,0.0,0.02,0.0,0.0,0.0,0.02,0.0,0.0,0.0,0.02,-0.006,-0.009000000000000001,0.998,0.04,0.0,0.0,0.0,0.04,0.0,0.0,0.0,0.01
1765344910063375232,51877,1765344910021377765,imu_link,0.003929803021421673,0.0004939538115137348,0.9416712177138788,-0.33651096622117044,0.010000000000000002,0.0,0.0,0.0,0.010000000000000002,0.0,0.0,0.0,0.010000000000000002,0.0,0.0,0.0,0.02,0.0,0.0,0.0,0.02,0.0,0.0,0.0,0.02,-0.002,-0.009000000000000001,1.0010000000000001,0.04,0.0,0.0,0.0,0.04,0.0,0.0,0.0,0.01
1765344910102447544,51878,1765344910101044364,imu_link,-0.003629922464499879,-0.00877301178014081,0.9416251616446476,-0.33652921549978176,0.010000000000000002,0.0,0.0,0.0,0.010000000000000002,0.0,0.0,0.0,0.010000000000000002,0.0,0.0,0.0,0.02,0.0,0.0,0.0,0.02,0.0,0.0,0.0,0.02,-0.006,-0.01,1.002,0.04,0.0,0.0,0.0,0.04,0.0,0.0,0.0,0.01
1765344910182834363,51879,1765344910180277111,imu_link,0.0003132319891910599,0.00245258753904136,0.9416626547341124,-0.33654915150567233,0.010000000000000002,0.0,0.0,0.0,0.010000000000000002,0.0,0.0,0.0,0.010000000000000002,0.0,0.0,0.0,0.02,0.0,0.0,0.0,0.02,0.0,0.0,0.0,0.02,-0.007,-0.007,1.0,0.04,0.0,0.0,0.0,0.04,0.0,0.0,0.0,0.01
1765344910270605842,51880,1765344910260905450,imu_link,0.0005062375245321618,-0.009708772241747076,0.9416196422556777,-0.3365381594758846,0.010000000000000002,0.0,0.0,0.0,0.010000000000000002,0.0,0.0,0.0,0.010000000000000002,-0.0017453292519943296,0.0,0.0,0.02,0.0,0.0,0.0,0.02,0.0,0.0,0.0,0.02,-0.002,-0.008,1.002,0.04,0.0,0.0,0.0,0.04,0.0,0.0,0.0,0.01
1765344910344216186,51881,1765344910340078364,imu_link,0.0006636548897595616,0.0021679213325476523,0.941664262458803,-0.33654609860641893,0.010000000000000002,0.0,0.0,0.0,0.010000000000000002,0.0,0.0,0.0,0.010000000000000002,0.0,0.0,0.0,0.02,0.0,0.0,0.0,0.02,0.0,0.0,0.0,0.02,-0.002,-0.009000000000000001,1.0010000000000001,0.04,0.0,0.0,0.0,0.04,0.0,0.0,0.0,0.01
1765344910422536447,51882,1765344910419746185,imu_link,-0.0014735573801464442,-0.009596194944656033,0.9416212334770441,-0.33653409089778924,0.010000000000000002,0.0,0.0,0.0,0.010000000000000002,0.0,0.0,0.0,0.010000000000000002,0.0,0.0,0.0,0.02,0.0,0.0,0.0,0.02,0.0,0.0,0.0,0.02,-0.004,-0.008,1.002,0.04,0.0,0.0,0.0,0.04,0.0,0.0,0.0,0.01
1765344910500082733,51883,1765344910499567765,imu_link,-0.0027204505735112013,0.002320680399737969,0.9416496564283495,-0.33657560538388814,0.010000000000000002,0.0,0.0,0.0,0.010000000000000002,0.0,0.0,0.0,0.010000000000000002,0.0,0.0,0.0,0.02,0.0,0.0,0.0,0.02,0.0,0.0,0.0,0.02,-0.007,-0.008,0.999,0.04,0.0,0.0,0.0,0.04,0.0,0.0,0.0,0.01
1765344910580798138,51884,1765344910580079956,imu_link,0.002564093176053993,-0.008560733899140235,0.9416239109204191,-0.3365479901057607,0.010000000000000002,0.0,0.0,0.0,0.010000000000000002,0.0,0.0,0.0,0.010000000000000002,0.0,0.0,0.0,0.02,0.0,0.0,0.0,0.02,0.0,0.0,0.0,0.02,-0.002,-0.008,1.0,0.04,0.0,0.0,0.0,0.04,0.0,0.0,0.0,0.01
1765344910661747388,51885,1765344910659248629,imu_link,-0.0061695726552599825,-0.00048800199043264487,0.9416252796505591,-0.3366058985673232,0.010000000000000002,0.0,0.0,0.0,0.010000000000000002,0.0,0.0,0.0,0.010000000000000002,0.0,0.0,0.0,0.02,0.0,0.0,0.0,0.02,0.0,0.0,0.0,0.02,-0.005,-0.01,1.0,0.04,0.0,0.0,0.0,0.04,0.0,0.0,0.0,0.01
1765344910739318226,51886,1765344910739903393,imu_link,0.0024440318472440424,-0.008997847061198671,0.9416214682160354,-0.3365443151373541,0.010000000000000002,0.0,0.0,0.0,0.010000000000000002,0.0,0.0,0.0,0.010000000000000002,0.0,0.0,0.0,0.02,0.0,0.0,0.0,0.02,0.0,0.0,0.0,0.02,-0.006,-0.009000000000000001,0.997,0.04,0.0,0.0,0.0,0.04,0.0,0.0,0.0,0.01
1765344910818598808,51887,1765344910818921345,imu_link,-0.0031290035000064277,0.0014723725183370404,0.9416485050213999,-0.33658005652032763,0.010000000000000002,0.0,0.0,0.0,0.010000000000000002,0.0,0.0,0.0,0.010000000000000002,0.0,0.0,0.0,0.02,0.0,0.0,0.0,0.02,0.0,0.0,0.0,0.02,-0.003,-0.008,1.0010000000000001,0.04,0.0,0.0,0.0,0.04,0.0,0.0,0.0,0.01
1765344910899660401,51888,1765344910898765036,imu_link,0.0025021741030383303,-0.009098986821206799,0.9416205487082941,-0.33654374130843145,0.010000000000000002,0.0,0.0,0.0,0.010000000000000002,0.0,0.0,0.0,0.010000000000000002,0.0,0.0,0.0,0.02,0.0,0.0,0.0,0.02,0.0,0.0,0.0,0.02,-0.003,-0.008,1.002,0.04,0.0,0.0,0.0,0.04,0.0,0.0,0.0,0.01
1765344910980923555,51889,1765344910978513950,imu_link,-0.0048743190071342596,0.0003348001781320844,0.9416365925554177,-0.33659568696535624,0.010000000000000002,0.0,0.0,0.0,0.010000000000000002,0.0,0.0,0.0,0.010000000000000002,0.0,0.0,0.0,0.02,0.0,0.0,0.0,0.02,0.0,0.0,0.0,0.02,-0.005,-0.008,1.0030000000000001,0.04,0.0,0.0,0.0,0.04,0.0,0.0,0.0,0.01
1765344911061325289,51890,1765344911058337419,imu_link,0.0008983772767430021,-0.010157748979480314,0.9416154344588956,-0.33653586234266814,0.010000000000000002,0.0,0.0,0.0,0.010000000000000002,0.0,0.0,0.0,0.010000000000000002,0.0,0.0,0.0,0.02,0.0,0.0,0.0,0.02,0.0,0.0,0.0,0.02,-0.007,-0.008,0.999,0.04,0.0,0.0,0.0,0.04,0.0,0.0,0.0,0.01
1765344911129110621,51891,1765344911127393738,imu_link,-0.0010435445513803019,2.945974800700366e-05,0.9416603241757109,-0.33656313526616,0.010000000000000002,0.0,0.0,0.0,0.010000000000000002,0.0,0.0,0.0,0.010000000000000002,0.0,0.0,0.0,0.02,0.0,0.0,0.0,0.02,0.0,0.0,0.0,0.02,-0.003,-0.006,1.0030000000000001,0.04,0.0,0.0,0.0,0.04,0.0,0.0,0.0,0.01
1765344911208708330,51892,1765344911207112652,imu_link,0.000792047089390827,-0.011800713234520782,0.9415991099956376,-0.3365282036976813,0.010000000000000002,0.0,0.0,0.0,0.010000000000000002,0.0,0.0,0.0,0.010000000000000002,0.0,0.0,0.0,0.02,0.0,0.0,0.0,0.02,0.0,0.0,0.0,0.02,-0.004,-0.01,1.0,0.04,0.0,0.0,0.0,0.04,0.0,0.0,0.0,0.01
1765344911287568266,51893,1765344911286081400,imu_link,-0.0008397568787367933,-6.519415952241512e-05,0.9416612874837791,-0.33656100518702076,0.010000000000000002,0.0,0.0,0.0,0.010000000000000002,0.0,0.0,0.0,0.010000000000000002,0.0,0.0,0.0,0.02,0.0,0.0,0.0,0.02,0.0,0.0,0.0,0.02,-0.004,-0.011,1.0,0.04,0.0,0.0,0.0,0.04,0.0,0.0,0.0,0.01
1765344911376449533,51894,1765344911364382094,imu_link,-0.00490040968750591,-0.011105674101977856,0.9415952732591619,-0.3365278463420814,0.010000000000000002,0.0,0.0,0.0,0.010000000000000002,0.0,0.0,0.0,0.010000000000000002,0.0,0.0,0.0,0.02,0.0,0.0,0.0,0.02,0.0,0.0,0.0,0.02,-0.007,-0.006,1.0010000000000001,0.04,0.0,0.0,0.0,0.04,0.0,0.0,0.0,0.01
1765344911450339762,51895,1765344911445047413,imu_link,0.0017357566823457422,-0.000981684446374711,0.9416945748588181,-0.3364630011247258,0.010000000000000002,0.0,0.0,0.0,0.010000000000000002,0.0,0.0,0.0,0.010000000000000002,0.0,0.0,-0.0017453292519943296,0.02,0.0,0.0,0.0,0.02,0.0,0.0,0.0,0.02,-0.004,-0.008,1.0010000000000001,0.04,0.0,0.0,0.0,0.04,0.0,0.0,0.0,0.01
1765344911526628666,51896,1765344911523932717,imu_link,-0.005037476210968496,-0.010698527207055417,0.9416226917105479,-0.33646228883012447,0.010000000000000002,0.0,0.0,0.0,0.010000000000000002,0.0,0.0,0.0,0.010000000000000002,0.0,0.0,0.0,0.02,0.0,0.0,0.0,0.02,0.0,0.0,0.0,0.02,-0.003,-0.007,1.0010000000000001,0.04,0.0,0.0,0.0,0.04,0.0,0.0,0.0,0.01
1765344911612022602,51897,1765344911603745483,imu_link,0.0011403537994446819,-0.00042979404878068506,0.9416926690110202,-0.33647203747293597,0.010000000000000002,0.0,0.0,0.0,0.010000000000000002,0.0,0.0,0.0,0.010000000000000002,0.0,0.0,0.0,0.02,0.0,0.0,0.0,0.02,0.0,0.0,0.0,0.02,-0.006,-0.008,1.0,0.04,0.0,0.0,0.0,0.04,0.0,0.0,0.0,0.01
1765344911691365956,51898,1765344911683721970,imu_link,-0.004257929977752567,-0.011143013929144558,0.9416214745495469,-0.3364620364023505,0.010000000000000002,0.0,0.0,0.0,0.010000000000000002,0.0,0.0,0.0,0.010000000000000002,0.0,0.0,0.0,0.02,0.0,0.0,0.0,0.02,0.0,0.0,0.0,0.02,-0.007,-0.01,1.0,0.04,0.0,0.0,0.0,0.04,0.0,0.0,0.0,0.01
1765344911764051304,51899,1765344911763387365,imu_link,0.0010768006431821709,-0.00042889999236243897,0.9416924961379826,-0.3364727318262019,0.010000000000000002,0.0,0.0,0.0,0.010000000000000002,0.0,0.0,0.0,0.010000000000000002,0.0,0.0,0.0,0.02,0.0,0.0,0.0,0.02,0.0,0.0,0.0,0.02,-0.005,-0.008,1.0,0.04,0.0,0.0,0.0,0.04,0.0,0.0,0.0,0.01
1765344911843310754,51900,1765344911843437371,imu_link,-0.0003682107533666026,-0.012367718803331724,0.9416165069647481,-0.3364598902751251,0.010000000000000002,0.0,0.0,0.0,0.010000000000000002,0.0,0.0,0.0,0.010000000000000002,0.0,0.0,0.0,0.02,0.0,0.0,0.0,0.02,0.0,0.0,0.0,0.02,-0.002,-0.009000000000000001,1.0010000000000001,0.04,0.0,0.0,0.0,0.04,0.0,0.0,0.0,0.01
1765344911924031251,51901,1765344911923117211,imu_link,-0.002963090685840899,-0.0006894804316313653,0.9416719890984332,-0.3365183645177811,0.010000000000000002,0.0,0.0,0.0,0.010000000000000002,0.0,0.0,0.0,0.010000000000000002,0.0,0.0,0.0,0.02,0.0,0.0,0.0,0.02,0.0,0.0,0.0,0.02,-0.007,-0.007,1.002,0.04,0.0,0.0,0.0,0.04,0.0,0.0,0.0,0.01
1765344912003951051,51902,1765344912003116587,imu_link,3.4140847446799565e-05,-0.012318760290944962,0.9416171838923568,-0.33645999164525375,0.010000000000000002,0.0,0.0,0.0,0.010000000000000002,0.0,0.0,0.0,0.010000000000000002,0.0,0.0,0.0,0.02,0.0,0.0,0.0,0.02,0.0,0.0,0.0,0.02,-0.007,-0.01,1.0,0.04,0.0,0.0,0.0,0.04,0.0,0.0,0.0,0.01
1765344912091001595,51903,1765344912082908148,imu_link,-0.001728677275248128,-0.000463818683338366,0.941679958724129,-0.3365050547680222,0.010000000000000002,0.0,0.0,0.0,0.010000000000000002,0.0,0.0,0.0,0.010000000000000002,0.0,0.0,0.0,0.02,0.0,0.0,0.0,0.02,0.0,0.0,0.0,0.02,-0.005,-0.007,1.0,0.04,0.0,0.0,0.0,0.04,0.0,0.0,0.0,0.01
1765344912163819201,51904,1765344912162758136,imu_link,0.003064032132666621,-0.011460134439148572,0.9416223510977753,-0.3364619219745749,0.010000000000000002,0.0,0.0,0.0,0.010000000000000002,0.0,0.0,0.0,0.010000000000000002,0.0,0.0,0.0,0.02,0.0,0.0,0.0,0.02,0.0,0.0,0.0,0.02,-0.003,-0.008,1.002,0.04,0.0,0.0,0.0,0.04,0.0,0.0,0.0,0.01
1765344912243596898,51905,1765344912243000827,imu_link,-0.0037243437232570846,-0.00150738365792345,0.9416650932048891,-0.33652742725930446,0.010000000000000002,0.0,0.0,0.0,0.010000000000000002,0.0,0.0,0.0,0.010000000000000002,0.0,0.0,0.0,0.02,0.0,0.0,0.0,0.02,0.0,0.0,0.0,0.02,-0.006,-0.008,1.0,0.04,0.0,0.0,0.0,0.04,0.0,0.0,0.0,0.01
1765344912321303386,51906,1765344912322128130,imu_link,0.0037140048826123056,-0.010770083606501805,0.9416501958512401,-0.33640023799064395,0.010000000000000002,0.0,0.0,0.0,0.010000000000000002,0.0,0.0,0.0,0.010000000000000002,0.0,0.0,-0.0017453292519943296,0.02,0.0,0.0,0.0,0.02,0.0,0.0,0.0,0.02,-0.005,-0.009000000000000001,1.0,0.04,0.0,0.0,0.0,0.04,0.0,0.0,0.0,0.01
1765344912393500470,51907,1765344912392055503,imu_link,-0.002625302664566273,-0.0024375227504274495,0.9416922394434417,-0.336456375241659,0.010000000000000002,0.0,0.0,0.0,0.010000000000000002,0.0,0.0,0.0,0.010000000000000002,0.0,-0.0017453292519943296,0.0,0.02,0.0,0.0,0.0,0.02,0.0,0.0,0.0,0.02,-0.005,-0.008,0.999,0.04,0.0,0.0,0.0,0.04,0.0,0.0,0.0,0.01
1765344912471207617,51908,1765344912470400549,imu_link,0.007670698595441924,-0.008129793230149018,0.9416529270653137,-0.33639980944468406,0.010000000000000002,0.0,0.0,0.0,0.010000000000000002,0.0,0.0,0.0,0.010000000000000002,0.0,0.0,0.0,0.02,0.0,0.0,0.0,0.02,0.0,0.0,0.0,0.02,-0.002,-0.008,1.0010000000000001,0.04,0.0,0.0,0.0,0.04,0.0,0.0,0.0,0.01
1765344912548521143,51909,1765344912549389593,imu_link,-0.003411823923948387,-0.004054709321301303,0.9416789425322409,-0.33647093185176064,0.010000000000000002,0.0,0.0,0.0,0.010000000000000002,0.0,0.0,0.0,0.010000000000000002,-0.0017453292519943296,0.0,0.0,0.02,0.0,0.0,0.0,0.02,0.0,0.0,0.0,0.02,-0.007,-0.007,1.002,0.04,0.0,0.0,0.0,0.04,0.0,0.0,0.0,0.01
1765344912629994221,51910,1765344912629057803,imu_link,0.00820146538415686,-0.006877110562744795,0.9416573064980447,-0.33640297031195754,0.010000000000000002,0.0,0.0,0.0,0.010000000000000002,0.0,0.0,0.0,0.010000000000000002,0.0,0.0,0.0,0.02,0.0,0.0,0.0,0.02,0.0,0.0,0.0,0.02,-0.005,-0.008,0.997,0.04,0.0,0.0,0.0,0.04,0.0,0.0,0.0,0.01
1765344912716218669,51911,1765344912708181218,imu_link,-0.0031705680824074376,-0.003459580707430648,0.9416839966403756,-0.3364657921256968,0.010000000000000002,0.0,0.0,0.0,0.010000000000000002,0.0,0.0,0.0,0.010000000000000002,0.0,0.0,0.0,0.02,0.0,0.0,0.0,0.02,0.0,0.0,0.0,0.02,-0.002,-0.009000000000000001,1.0010000000000001,0.04,0.0,0.0,0.0,0.04,0.0,0.0,0.0,0.01
1765344912787345118,51912,1765344912788050928,imu_link,0.008636618286758215,-0.005603527618936638,0.9416604889178675,-0.33640679677104546,0.010000000000000002,0.0,0.0,0.0,0.010000000000000002,0.0,0.0,0.0,0.010000000000000002,0.0,0.0,0.0,0.02,0.0,0.0,0.0,0.02,0.0,0.0,0.0,0.02,-0.002,-0.008,1.002,0.04,0.0,0.0,0.0,0.04,0.0,0.0,0.0,0.01
1765344912868489672,51913,1765344912867977748,imu_link,-0.003317191693310041,-0.005027649670463416,0.9416727420058646,-0.33647610010402995,0.010000000000000002,0.0,0.0,0.0,0.010000000000000002,0.0,0.0,0.0,0.010000000000000002,-0.0017453292519943296,0.0,0.0,0.02,0.0,0.0,0.0,0.02,0.0,0.0,0.0,0.02,-0.005,-0.009000000000000001,1.0,0.04,0.0,0.0,0.0,0.04,0.0,0.0,0.0,0.01
1765344912949847212,51914,1765344912947905754,imu_link,0.008670422556356076,-0.004439964694275893,0.9416647680076502,-0.336411318447085,0.010000000000000002,0.0,0.0,0.0,0.010000000000000002,0.0,0.0,0.0,0.010000000000000002,0.0,0.0,0.0,0.02,0.0,0.0,0.0,0.02,0.0,0.0,0.0,0.02,-0.007,-0.008,1.0,0.04,0.0,0.0,0.0,0.04,0.0,0.0,0.0,0.01
1765344913029113458,51915,1765344913027065354,imu_link,-0.0032137491755020895,-0.004666054967504521,0.9416759200991462,-0.3364734183449023,0.010000000000000002,0.0,0.0,0.0,0.010000000000000002,0.0,0.0,0.0,0.010000000000000002,0.0,0.0,0.0,0.02,0.0,0.0,0.0,0.02,0.0,0.0,0.0,0.02,-0.002,-0.009000000000000001,0.999,0.04,0.0,0.0,0.0,0.04,0.0,0.0,0.0,0.01
1765344913142268013,51916,1765344913107059175,imu_link,0.008600661436698022,-0.006781199529487074,0.9416553867425459,-0.3364003219001712,0.010000000000000002,0.0,0.0,0.0,0.010000000000000002,0.0,0.0,0.0,0.010000000000000002,0.0,0.0,0.0,0.02,0.0,0.0,0.0,0.02,0.0,0.0,0.0,0.02,-0.005,-0.009000000000000001,1.0010000000000001,0.04,0.0,0.0,0.0,0.04,0.0,0.0,0.0,0.01
1765344913221041056,51917,1765344913186699163,imu_link,-0.0030372085007648354,-0.004004488246974065,0.9416814581259779,-0.336468082973905,0.010000000000000002,0.0,0.0,0.0,0.010000000000000002,0.0,0.0,0.0,0.010000000000000002,0.0,0.0,0.0,0.02,0.0,0.0,0.0,0.02,0.0,0.0,0.0,0.02,-0.003,-0.009000000000000001,1.0010000000000001,0.04,0.0,0.0,0.0,0.04,0.0,0.0,0.0,0.01
1765344913279897211,51918,1765344913266853372,imu_link,0.006664219703906835,-0.011139110817481082,0.9416343763583737,-0.3363869938718065,0.010000000000000002,0.0,0.0,0.0,0.010000000000000002,0.0,0.0,0.0,0.010000000000000002,0.0,0.0,0.0,0.02,0.0,0.0,0.0,0.02,0.0,0.0,0.0,0.02,-0.006,-0.009000000000000001,0.999,0.04,0.0,0.0,0.0,0.04,0.0,0.0,0.0,0.01
1765344913350220360,51919,1765344913346330767,imu_link,-0.0016859858742687885,-0.0026266724606180316,0.9416969195370463,-0.3364478708178346,0.010000000000000002,0.0,0.0,0.0,0.010000000000000002,0.0,0.0,0.0,0.010000000000000002,0.0,0.0,0.0,0.02,0.0,0.0,0.0,0.02,0.0,0.0,0.0,0.02,-0.003,-0.008,1.002,0.04,0.0,0.0,0.0,0.04,0.0,0.0,0.0,0.01
1765344913442493947,51920,1765344913426151533,imu_link,0.006018407826609659,-0.011812468872459472,0.9416307670319553,-0.33638630014491017,0.010000000000000002,0.0,0.0,0.0,0.010000000000000002,0.0,0.0,0.0,0.010000000000000002,0.0,0.0,0.0,0.02,0.0,0.0,0.0,0.02,0.0,0.0,0.0,0.02,-0.003,-0.009000000000000001,1.0,0.04,0.0,0.0,0.0,0.04,0.0,0.0,0.0,0.01
1765344913505536526,51921,1765344913506048280,imu_link,-0.0027333220954163665,-0.003623313933186284,0.9416856259530195,-0.3364633448385339,0.010000000000000002,0.0,0.0,0.0,0.010000000000000002,0.0,0.0,0.0,0.010000000000000002,0.0,0.0,0.0,0.02,0.0,0.0,0.0,0.02,0.0,0.0,0.0,0.02,-0.006,-0.008,1.0,0.04,0.0,0.0,0.0,0.04,0.0,0.0,0.0,0.01
1765344913585297714,51922,1765344913586093526,imu_link,0.005128159428513268,-0.012722728318669533,0.9416246750441771,-0.3363849067852971,0.010000000000000002,0.0,0.0,0.0,0.010000000000000002,0.0,0.0,0.0,0.010000000000000002,0.0,0.0,0.0,0.02,0.0,0.0,0.0,0.02,0.0,0.0,0.0,0.02,-0.006,-0.009000000000000001,1.0,0.04,0.0,0.0,0.0,0.04,0.0,0.0,0.0,0.01
1765344913666559431,51923,1765344913665605440,imu_link,-0.0016148941794211454,-0.002885639289772107,0.941696237640698,-0.33644800670539343,0.010000000000000002,0.0,0.0,0.0,0.010000000000000002,0.0,0.0,0.0,0.010000000000000002,0.0,0.0,0.0,0.02,0.0,0.0,0.0,0.02,0.0,0.0,0.0,0.02,-0.004,-0.008,1.0,0.04,0.0,0.0,0.0,0.04,0.0,0.0,0.0,0.01
1765344913736080794,51924,1765344913735054425,imu_link,0.005434377338199221,-0.010555959360598315,0.941646023537515,-0.3363953115322939,0.010000000000000002,0.0,0.0,0.0,0.010000000000000002,0.0,0.0,0.0,0.010000000000000002,0.0,0.0,0.0,0.02,0.0,0.0,0.0,0.02,0.0,0.0,0.0,0.02,-0.003,-0.009000000000000001,1.0010000000000001,0.04,0.0,0.0,0.0,0.04,0.0,0.0,0.0,0.01
1765344913815904292,51925,1765344913814053247,imu_link,-0.0040206969704473,-0.003398340218176915,0.941678853841407,-0.3364717246776724,0.010000000000000002,0.0,0.0,0.0,0.010000000000000002,0.0,0.0,0.0,0.010000000000000002,0.0,0.0,0.0,0.02,0.0,0.0,0.0,0.02,0.0,0.0,0.0,0.02,-0.007,-0.008,1.0,0.04,0.0,0.0,0.0,0.04,0.0,0.0,0.0,0.01
1765344913894946513,51926,1765344913892397645,imu_link,0.006181732577090386,-0.009266701081281829,0.9416530801793023,-0.33640064063887826,0.010000000000000002,0.0,0.0,0.0,0.010000000000000002,0.0,0.0,0.0,0.010000000000000002,0.0,0.0,0.0,0.02,0.0,0.0,0.0,0.02,0.0,0.0,0.0,0.02,-0.007,-0.007,1.0,0.04,0.0,0.0,0.0,0.04,0.0,0.0,0.0,0.01
1765344913983193496,51927,1765344913972065373,imu_link,-0.003165559943135373,-0.0018093800317047248,0.9416916153031722,-0.3364574371920608,0.010000000000000002,0.0,0.0,0.0,0.010000000000000002,0.0,0.0,0.0,0.010000000000000002,0.0,0.0,0.0,0.02,0.0,0.0,0.0,0.02,0.0,0.0,0.0,0.02,-0.003,-0.008,1.0010000000000001,0.04,0.0,0.0,0.0,0.04,0.0,0.0,0.0,0.01
1765344914054972632,51928,1765344914052913174,imu_link,0.004560333955331734,-0.011167747414706448,0.9416440269395376,-0.33639413089557346,0.010000000000000002,0.0,0.0,0.0,0.010000000000000002,0.0,0.0,0.0,0.010000000000000002,0.0,0.0,0.0,0.02,0.0,0.0,0.0,0.02,0.0,0.0,0.0,0.02,-0.004,-0.01,1.0,0.04,0.0,0.0,0.0,0.04,0.0,0.0,0.0,0.01
1765344914132453841,51929,1765344914131189868,imu_link,-0.0033316454756025385,-0.0024618344125010186,0.9416881697225187,-0.3364613358387607,0.010000000000000002,0.0,0.0,0.0,0.010000000000000002,0.0,0.0,0.0,0.010000000000000002,0.0,0.0,0.0,0.02,0.0,0.0,0.0,0.02,0.0,0.0,0.0,0.02,-0.006,-0.007,1.0010000000000001,0.04,0.0,0.0,0.0,0.04,0.0,0.0,0.0,0.01
1765344914217356439,51930,1765344914211009318,imu_link,0.007130201609204678,-0.008306746549311659,0.9416550377006215,-0.33640146872422916,0.010000000000000002,0.0,0.0,0.0,0.010000000000000002,0.0,0.0,0.0,0.010000000000000002,0.0,0.0,0.0,0.02,0.0,0.0,0.0,0.02,0.0,0.0,0.0,0.02,-0.003,-0.008,1.0,0.04,0.0,0.0,0.0,0.04,0.0,0.0,0.0,0.01
1765344914293009168,51931,1765344914290825695,imu_link,-0.0031072786443195203,-0.0020617032696275787,0.9416912893387326,-0.33645744126502786,0.010000000000000002,0.0,0.0,0.0,0.010000000000000002,0.0,0.0,0.0,0.010000000000000002,0.0,0.0,0.0,0.02,0.0,0.0,0.0,0.02,0.0,0.0,0.0,0.02,-0.003,-0.007,1.0,0.04,0.0,0.0,0.0,0.04,0.0,0.0,0.0,0.01
1765344914381031734,51932,1765344914370640849,imu_link,0.0056308881195968425,-0.01025920791516533,0.9416479790250744,-0.3363957867600771,0.010000000000000002,0.0,0.0,0.0,0.010000000000000002,0.0,0.0,0.0,0.010000000000000002,0.0,0.0,0.0,0.02,0.0,0.0,0.0,0.02,0.0,0.0,0.0,0.02,-0.003,-0.01,1.0,0.04,0.0,0.0,0.0,0.04,0.0,0.0,0.0,0.01
1765344914452065637,51933,1765344914450457818,imu_link,-0.0038744878686585984,-0.0029554632059353774,0.9416823138545701,-0.33646793807805353,0.010000000000000002,0.0,0.0,0.0,0.010000000000000002,0.0,0.0,0.0,0.010000000000000002,0.0,0.0,0.0,0.02,0.0,0.0,0.0,0.02,0.0,0.0,0.0,0.02,-0.006,-0.008,1.0,0.04,0.0,0.0,0.0,0.04,0.0,0.0,0.0,0.01
1765344914530920741,51934,1765344914530919935,imu_link,0.00713512592074108,-0.007946755867907392,0.9416572422495998,-0.33640388994206016,0.010000000000000002,0.0,0.0,0.0,0.010000000000000002,0.0,0.0,0.0,0.010000000000000002,0.0,0.0,0.0,0.02,0.0,0.0,0.0,0.02,0.0,0.0,0.0,0.02,-0.003,-0.009000000000000001,1.0,0.04,0.0,0.0,0.0,0.04,0.0,0.0,0.0,0.01
1765344914614279456,51935,1765344914610075090,imu_link,-0.003444036017677533,-0.0025193168836178787,0.941687119675239,-0.336462717542525,0.010000000000000002,0.0,0.0,0.0,0.010000000000000002,0.0,0.0,0.0,0.010000000000000002,0.0,0.0,0.0,0.02,0.0,0.0,0.0,0.02,0.0,0.0,0.0,0.02,-0.002,-0.009000000000000001,1.002,0.04,0.0,0.0,0.0,0.04,0.0,0.0,0.0,0.01
1765344914698014053,51936,1765344914690112040,imu_link,0.00803674187359123,-0.0060292154730215,0.9416619626266775,-0.3364101774365802,0.010000000000000002,0.0,0.0,0.0,0.010000000000000002,0.0,0.0,0.0,0.010000000000000002,0.0,0.0,0.0,0.02,0.0,0.0,0.0,0.02,0.0,0.0,0.0,0.02,-0.002,-0.007,1.0,0.04,0.0,0.0,0.0,0.04,0.0,0.0,0.0,0.01
1765344914780023022,51937,1765344914769993509,imu_link,-0.0038957877304308984,-0.004774808908211405,0.9416707958172076,-0.33647902808768976,0.010000000000000002,0.0,0.0,0.0,0.010000000000000002,0.0,0.0,0.0,0.010000000000000002,0.0,0.0,0.0,0.02,0.0,0.0,0.0,0.02,0.0,0.0,0.0,0.02,-0.005,-0.009000000000000001,1.0,0.04,0.0,0.0,0.0,0.04,0.0,0.0,0.0,0.01
1765344914850675778,51938,1765344914850060107,imu_link,0.007764721822037278,-0.007666869811481919,0.9416551346492809,-0.33640234183335455,0.010000000000000002,0.0,0.0,0.0,0.010000000000000002,0.0,0.0,0.0,0.010000000000000002,0.0,0.0,0.0,0.02,0.0,0.0,0.0,0.02,0.0,0.0,0.0,0.02,-0.005,-0.01,0.999,0.04,0.0,0.0,0.0,0.04,0.0,0.0,0.0,0.01
1765344914930937145,51939,1765344914930075187,imu_link,-0.0032667142408900848,-0.0029388230678979756,0.9416860058065383,-0.3364642007185497,0.010000000000000002,0.0,0.0,0.0,0.010000000000000002,0.0,0.0,0.0,0.010000000000000002,0.0,0.0,0.0,0.02,0.0,0.0,0.0,0.02,0.0,0.0,0.0,0.02,-0.002,-0.009000000000000001,1.0010000000000001,0.04,0.0,0.0,0.0,0.04,0.0,0.0,0.0,0.01
1765344915003131723,51940,1765344914998406822,imu_link,0.006169080620230731,-0.00698300823215132,0.9416679919377148,-0.3364142877470018,0.010000000000000002,0.0,0.0,0.0,0.010000000000000002,0.0,0.0,0.0,0.010000000000000002,0.0,0.0,0.0,0.02,0.0,0.0,0.0,0.02,0.0,0.0,0.0,0.02,-0.002,-0.009000000000000001,1.0010000000000001,0.04,0.0,0.0,0.0,0.04,0.0,0.0,0.0,0.01
1765344915185607843,51941,1765344915077443811,imu_link,-0.005232312772316566,-0.0037113629810750816,0.9416694984066721,-0.3364779405227065,0.010000000000000002,0.0,0.0,0.0,0.010000000000000002,0.0,0.0,0.0,0.010000000000000002,0.0,0.0,0.0,0.02,0.0,0.0,0.0,0.02,0.0,0.0,0.0,0.02,-0.006,-0.008,1.0010000000000001,0.04,0.0,0.0,0.0,0.04,0.0,0.0,0.0,0.01
1765344915191905723,51942,1765344915157073336,imu_link,0.0063563736586206435,-0.006608853440160237,0.9416688571069225,-0.3364159376799218,0.010000000000000002,0.0,0.0,0.0,0.010000000000000002,0.0,0.0,0.0,0.010000000000000002,0.0,0.0,0.0,0.02,0.0,0.0,0.0,0.02,0.0,0.0,0.0,0.02,-0.004,-0.009000000000000001,1.0,0.04,0.0,0.0,0.0,0.04,0.0,0.0,0.0,0.01
1765344915234670871,51943,1765344915235408511,imu_link,-0.00473490087642794,-0.0027266870971893757,0.9416780301174977,-0.3364708508700171,0.010000000000000002,0.0,0.0,0.0,0.010000000000000002,0.0,0.0,0.0,0.010000000000000002,0.0,0.0,0.0,0.02,0.0,0.0,0.0,0.02,0.0,0.0,0.0,0.02,-0.002,-0.009000000000000001,1.0010000000000001,0.04,0.0,0.0,0.0,0.04,0.0,0.0,0.0,0.01
1765344915316041036,51944,1765344915315150388,imu_link,0.005368708129862878,-0.009128450549559927,0.9416587468531263,-0.3364025161002519,0.010000000000000002,0.0,0.0,0.0,0.010000000000000002,0.0,0.0,0.0,0.010000000000000002,0.0,0.0,0.0,0.02,0.0,0.0,0.0,0.02,0.0,0.0,0.0,0.02,-0.006,-0.008,1.0010000000000001,0.04,0.0,0.0,0.0,0.04,0.0,0.0,0.0,0.01
1765344915394864725,51945,1765344915394940839,imu_link,-0.005047466871534479,-0.0031937567597903863,0.941673484430702,-0.33647491989163264,0.010000000000000002,0.0,0.0,0.0,0.010000000000000002,0.0,0.0,0.0,0.010000000000000002,0.0,0.0,0.0,0.02,0.0,0.0,0.0,0.02,0.0,0.0,0.0,0.02,-0.007,-0.008,1.0010000000000001,0.04,0.0,0.0,0.0,0.04,0.0,0.0,0.0,0.01
1765344915481879387,51946,1765344915475069252,imu_link,0.006296603974383063,-0.00722619326723497,0.9416660658946054,-0.336412180593734,0.010000000000000002,0.0,0.0,0.0,0.010000000000000002,0.0,0.0,0.0,0.010000000000000002,0.0,0.0,0.0,0.02,0.0,0.0,0.0,0.02,0.0,0.0,0.0,0.02,-0.005,-0.008,0.999,0.04,0.0,0.0,0.0,0.04,0.0,0.0,0.0,0.01
1765344915565478087,51947,1765344915554583406,imu_link,-0.004782429146194752,-0.002795396031038017,0.9416773230595711,-0.336471593701239,0.010000000000000002,0.0,0.0,0.0,0.010000000000000002,0.0,0.0,0.0,0.010000000000000002,0.0,0.0,0.0,0.02,0.0,0.0,0.0,0.02,0.0,0.0,0.0,0.02,-0.003,-0.009000000000000001,1.002,0.04,0.0,0.0,0.0,0.04,0.0,0.0,0.0,0.01
1765344915710459777,51948,1765344915634395505,imu_link,0.004985413533714329,-0.009751679371688225,0.9416556719782054,-0.3363995330445689,0.010000000000000002,0.0,0.0,0.0,0.010000000000000002,0.0,0.0,0.0,0.010000000000000002,0.0,0.0,0.0,0.02,0.0,0.0,0.0,0.02,0.0,0.0,0.0,0.02,-0.006,-0.009000000000000001,1.0,0.04,0.0,0.0,0.0,0.04,0.0,0.0,0.0,0.01
1765344915726084519,51949,1765344915715061640,imu_link,-0.0046331367837487555,-0.002386964156795203,0.941680156642186,-0.3364688975700511,0.010000000000000002,0.0,0.0,0.0,0.010000000000000002,0.0,0.0,0.0,0.010000000000000002,0.0,0.0,0.0,0.02,0.0,0.0,0.0,0.02,0.0,0.0,0.0,0.02,-0.006,-0.008,0.999,0.04,0.0,0.0,0.0,0.04,0.0,0.0,0.0,0.01
1765344915798120782,51950,1765344915794031573,imu_link,0.004320334666948846,-0.010169768733141236,0.9416547819518684,-0.3363988438438206,0.010000000000000002,0.0,0.0,0.0,0.010000000000000002,0.0,0.0,0.0,0.010000000000000002,0.0,0.0,0.0,0.02,0.0,0.0,0.0,0.02,0.0,0.0,0.0,0.02,-0.006,-0.009000000000000001,0.999,0.04,0.0,0.0,0.0,0.04,0.0,0.0,0.0,0.01
1765344915880536165,51951,1765344915873926394,imu_link,-0.0016520940324709023,0.00015355407472308094,0.9417055748055962,-0.3364340312550374,0.010000000000000002,0.0,0.0,0.0,0.010000000000000002,0.0,0.0,0.0,0.010000000000000002,-0.0017453292519943296,0.0,0.0,0.02,0.0,0.0,0.0,0.02,0.0,0.0,0.0,0.02,-0.002,-0.004,1.004,0.04,0.0,0.0,0.0,0.04,0.0,0.0,0.0,0.01
1765344915953986651,51952,1765344915953848085,imu_link,-0.004660679772950241,-0.01145785198221183,0.9416414348254657,-0.3363902553758739,0.010000000000000002,0.0,0.0,0.0,0.010000000000000002,0.0,0.0,0.0,0.010000000000000002,0.0,0.0,0.0,0.02,0.0,0.0,0.0,0.02,0.0,0.0,0.0,0.02,-0.006,-0.003,1.004,0.04,0.0,0.0,0.0,0.04,0.0,0.0,0.0,0.01
1765344916046891286,51953,1765344916047060052,imu_link,0.0009147475657171699,0.001249044603204234,0.9416856486791122,-0.3364903300189622,0.010000000000000002,0.0,0.0,0.0,0.010000000000000002,0.0,0.0,0.0,0.010000000000000002,-0.003490658503988659,0.0,0.0017453292519943296,0.02,0.0,0.0,0.0,0.02,0.0,0.0,0.0,0.02,-0.004,-0.005,0.997,0.04,0.0,0.0,0.0,0.04,0.0,0.0,0.0,0.01
1765344916114506931,51954,1765344916113485116,imu_link,0.0033544329697253973,-0.008412159749529479,0.9416246533667572,-0.33654270980030837,0.010000000000000002,0.0,0.0,0.0,0.010000000000000002,0.0,0.0,0.0,0.010000000000000002,0.0,0.0,0.0017453292519943296,0.02,0.0,0.0,0.0,0.02,0.0,0.0,0.0,0.02,-0.013000000000000001,-0.16,0.997,0.04,0.0,0.0,0.0,0.04,0.0,0.0,0.0,0.01
1765344916192640684,51955,1765344916193109863,imu_link,0.008881097827473813,-0.01893264105064804,0.9406825330060786,-0.3386429584407358,0.010000000000000002,0.0,0.0,0.0,0.010000000000000002,0.0,0.0,0.0,0.010000000000000002,0.003490658503988659,-0.019198621771937627,0.05759586531581287,0.02,0.0,0.0,0.0,0.02,0.0,0.0,0.0,0.02,0.008,-0.113,0.989,0.04,0.0,0.0,0.0,0.04,0.0,0.0,0.0,0.01
1765344916265508686,51956,1765344916262508533,imu_link,0.005514991944473501,-0.02751661503414801,0.9386755336875989,-0.3436577704886305,0.010000000000000002,0.0,0.0,0.0,0.010000000000000002,0.0,0.0,0.0,0.010000000000000002,0.015707963267948967,-0.03665191429188092,0.15009831567151233,0.02,0.0,0.0,0.0,0.02,0.0,0.0,0.0,0.02,-0.033,-0.08,1.008,0.04,0.0,0.0,0.0,0.04,0.0,0.0,0.0,0.01
1765344916352357708,51957,1765344916342106059,imu_link,-0.0033478032541050147,-0.021240853787610935,0.9356391835750201,-0.3523023367830748,0.010000000000000002,0.0,0.0,0.0,0.010000000000000002,0.0,0.0,0.0,0.010000000000000002,-0.019198621771937627,-0.027925268031909273,0.2234021442552742,0.02,0.0,0.0,0.0,0.02,0.0,0.0,0.0,0.02,-0.031,-0.03,1.083,0.04,0.0,0.0,0.0,0.04,0.0,0.0,0.0,0.01
1765344916431062671,51958,1765344916420454289,imu_link,0.0076650391405321434,-0.014830658673401512,0.9320518881583596,-0.361940017846499,0.010000000000000002,0.0,0.0,0.0,0.010000000000000002,0.0,0.0,0.0,0.010000000000000002,0.003490658503988659,-0.029670597283903605,0.2670353755551324,0.02,0.0,0.0,0.0,0.02,0.0,0.0,0.0,0.02,0.026000000000000002,-0.027,0.921,0.04,0.0,0.0,0.0,0.04,0.0,0.0,0.0,0.01
1765344916504461435,51959,1765344916499459204,imu_link,-0.001433140142256111,-0.004283210932659684,0.9286908257738552,-0.3708273861743682,0.010000000000000002,0.0,0.0,0.0,0.010000000000000002,0.0,0.0,0.0,0.010000000000000002,0.038397243543875255,0.054105206811824215,0.24085543677521748,0.02,0.0,0.0,0.0,0.02,0.0,0.0,0.0,0.02,0.0,-0.016,1.0190000000000001,0.04,0.0,0.0,0.0,0.04,0.0,0.0,0.0,0.01
1765344916581432417,51960,1765344916578892692,imu_link,0.0058954375821322225,9.636938473110509e-05,0.924423155376584,-0.3813227823409675,0.010000000000000002,0.0,0.0,0.0,0.010000000000000002,0.0,0.0,0.0,0.010000000000000002,-0.03665191429188092,0.07853981633974483,0.28623399732707006,0.02,0.0,0.0,0.0,0.02,0.0,0.0,0.0,0.02,0.043000000000000003,0.005,0.965,0.04,0.0,0.0,0.0,0.04,0.0,0.0,0.0,0.01
1765344916681848076,51961,1765344916658728958,imu_link,-0.005104053432612185,0.00201831467188602,0.9199464611844689,-0.3920055912848881,0.010000000000000002,0.0,0.0,0.0,0.010000000000000002,0.0,0.0,0.0,0.010000000000000002,0.050614548307835565,-0.047123889803846894,0.2897246558310587,0.02,0.0,0.0,0.0,0.02,0.0,0.0,0.0,0.02,-0.035,0.012,1.065,0.04,0.0,0.0,0.0,0.04,0.0,0.0,0.0,0.01
1765344916754091455,51962,1765344916738943130,imu_link,0.001785179492017158,-0.007910379977326033,0.9155827018919579,-0.4020479511439127,0.010000000000000002,0.0,0.0,0.0,0.010000000000000002,0.0,0.0,0.0,0.010000000000000002,0.0,-0.010471975511965978,0.27401669256310973,0.02,0.0,0.0,0.0,0.02,0.0,0.0,0.0,0.02,-0.005,-0.011,1.052,0.04,0.0,0.0,0.0,0.04,0.0,0.0,0.0,0.01
1765344916830668830,51963,1765344916818365637,imu_link,-0.0031162229495747804,-0.016587758204185492,0.9104475201675455,-0.4132801089491907,0.010000000000000002,0.0,0.0,0.0,0.010000000000000002,0.0,0.0,0.0,0.010000000000000002,0.013962634015954637,-0.05235987755982988,0.3089232776029963,0.02,0.0,0.0,0.0,0.02,0.0,0.0,0.0,0.02,-0.031,-0.033,0.911,0.04,0.0,0.0,0.0,0.04,0.0,0.0,0.0,0.01
1765344916912380619,51964,1765344916899039845,imu_link,-0.0010049756636944765,-0.004406703859286691,0.9060518969171399,-0.4231424477381868,0.010000000000000002,0.0,0.0,0.0,0.010000000000000002,0.0,0.0,0.0,0.010000000000000002,0.02617993877991494,0.022689280275926284,0.2687807048071268,0.02,0.0,0.0,0.0,0.02,0.0,0.0,0.0,0.02,0.008,0.003,1.054,0.04,0.0,0.0,0.0,0.04,0.0,0.0,0.0,0.01
1765344916986770865,51965,1765344916978074575,imu_link,-0.005264856440271481,0.00719207001878381,0.9002415725389487,-0.4352995135399408,0.010000000000000002,0.0,0.0,0.0,0.010000000000000002,0.0,0.0,0.0,0.010000000000000002,0.012217304763960306,0.006981317007977318,0.34033920413889424,0.02,0.0,0.0,0.0,0.02,0.0,0.0,0.0,0.02,-0.004,0.012,1.147,0.04,0.0,0.0,0.0,0.04,0.0,0.0,0.0,0.01
1765344917063894943,51966,1765344917058158821,imu_link,0.004468770453783597,0.009671319230841269,0.8946085045980872,-0.4467237615974113,0.010000000000000002,0.0,0.0,0.0,0.010000000000000002,0.0,0.0,0.0,0.010000000000000002,0.08552113334772216,0.024434609527920613,0.31590459461097364,0.02,0.0,0.0,0.0,0.02,0.0,0.0,0.0,0.02,0.038,-0.004,0.968,0.04,0.0,0.0,0.0,0.04,0.0,0.0,0.0,0.01
1765344917137017660,51967,1765344917137606272,imu_link,0.0005196875176521756,0.017811639140007485,0.8877726537069792,-0.4599371595838917,0.010000000000000002,0.0,0.0,0.0,0.010000000000000002,0.0,0.0,0.0,0.010000000000000002,-0.050614548307835565,-0.10471975511965977,0.3787364476827696,0.02,0.0,0.0,0.0,0.02,0.0,0.0,0.0,0.02,0.008,0.046,1.166,0.04,0.0,0.0,0.0,0.04,0.0,0.0,0.0,0.01
1765344917227339232,51968,1765344917217430890,imu_link,-0.004076830729071626,0.006478743989020702,0.8821388843272339,-0.47092716431039955,0.010000000000000002,0.0,0.0,0.0,0.010000000000000002,0.0,0.0,0.0,0.010000000000000002,-0.03316125578789226,-0.013962634015954637,0.31241393610698504,0.02,0.0,0.0,0.0,0.02,0.0,0.0,0.0,0.02,-0.044,-0.01,0.934,0.04,0.0,0.0,0.0,0.04,0.0,0.0,0.0,0.01
1765344917297164892,51969,1765344917297276599,imu_link,0.008086761144100962,0.017361174480672828,0.8754951603425403,-0.48284719956901434,0.010000000000000002,0.0,0.0,0.0,0.010000000000000002,0.0,0.0,0.0,0.010000000000000002,0.050614548307835565,-0.09773843811168245,0.34033920413889424,0.02,0.0,0.0,0.0,0.02,0.0,0.0,0.0,0.02,0.029,0.021,1.071,0.04,0.0,0.0,0.0,0.04,0.0,0.0,0.0,0.01
1765344917377534468,51970,1765344917377069402,imu_link,0.0026212257549075354,0.005538278170325187,0.8683755847288147,-0.49586923729682886,0.010000000000000002,0.0,0.0,0.0,0.010000000000000002,0.0,0.0,0.0,0.010000000000000002,-0.047123889803846894,0.0017453292519943296,0.3735004599267866,0.02,0.0,0.0,0.0,0.02,0.0,0.0,0.0,0.02,-0.019,-0.004,0.973,0.04,0.0,0.0,0.0,0.04,0.0,0.0,0.0,0.01
1765344917693223180,51971,1765344917456859556,imu_link,0.011133855015546998,0.011788297874434844,0.8620396502428125,-0.5065813998904478,0.010000000000000002,0.0,0.0,0.0,0.010000000000000002,0.0,0.0,0.0,0.010000000000000002,-0.11519173063162574,0.0,0.31241393610698504,0.02,0.0,0.0,0.0,0.02,0.0,0.0,0.0,0.02,0.026000000000000002,0.016,1.0230000000000001,0.04,0.0,0.0,0.0,0.04,0.0,0.0,0.0,0.01
1765344917693292292,51972,1765344917537110840,imu_link,0.0018678511726082144,0.011924650535756455,0.854730988392715,-0.5189308733567598,0.010000000000000002,0.0,0.0,0.0,0.010000000000000002,0.0,0.0,0.0,0.010000000000000002,-0.07330382858376185,-0.02617993877991494,0.36302848441482055,0.02,0.0,0.0,0.0,0.02,0.0,0.0,0.0,0.02,-0.012,0.049,1.054,0.04,0.0,0.0,0.0,0.04,0.0,0.0,0.0,0.01
1765344917693296512,51973,1765344917605753048,imu_link,-0.002107411563990557,0.0024680301430823844,0.8499216083680017,-0.5268991623383563,0.010000000000000002,0.0,0.0,0.0,0.010000000000000002,0.0,0.0,0.0,0.010000000000000002,-0.006981317007977318,-0.005235987755982989,0.27227136331111546,0.02,0.0,0.0,0.0,0.02,0.0,0.0,0.0,0.02,-0.044,-0.022,0.907,0.04,0.0,0.0,0.0,0.04,0.0,0.0,0.0,0.01
1765344917706394440,51974,1765344917684937870,imu_link,0.0029543129211225573,0.016826179172280856,0.8420205092114155,-0.5391749380275151,0.010000000000000002,0.0,0.0,0.0,0.010000000000000002,0.0,0.0,0.0,0.010000000000000002,0.031415926535897934,-0.08377580409572782,0.36826447217080355,0.02,0.0,0.0,0.0,0.02,0.0,0.0,0.0,0.02,0.017,0.024,1.012,0.04,0.0,0.0,0.0,0.04,0.0,0.0,0.0,0.01
1765344917773407006,51975,1765344917764176285,imu_link,-0.00603902262032642,0.0063295652194526614,0.8346233397590538,-0.5507516205508315,0.010000000000000002,0.0,0.0,0.0,0.010000000000000002,0.0,0.0,0.0,0.010000000000000002,-0.017453292519943295,0.048869219055841226,0.3490658503988659,0.02,0.0,0.0,0.0,0.02,0.0,0.0,0.0,0.02,-0.02,0.012,0.931,0.04,0.0,0.0,0.0,0.04,0.0,0.0,0.0,0.01
1765344917875408796,51976,1765344917869211233,imu_link,0.008177046142597186,0.00016974318986435262,0.8260655737937979,-0.5635146625389217,0.010000000000000002,0.0,0.0,0.0,0.010000000000000002,0.0,0.0,0.0,0.010000000000000002,0.0017453292519943296,0.008726646259971648,0.291469985083053,0.02,0.0,0.0,0.0,0.02,0.0,0.0,0.0,0.02,0.003,0.007,0.913,0.04,0.0,0.0,0.0,0.04,0.0,0.0,0.0,0.01
1765344917926818311,51977,1765344917922413707,imu_link,0.005192790651912136,0.009699677201117429,0.8198458690089764,-0.5724785605211392,0.010000000000000002,0.0,0.0,0.0,0.010000000000000002,0.0,0.0,0.0,0.010000000000000002,0.07330382858376185,-0.027925268031909273,0.4118977034706618,0.02,0.0,0.0,0.0,0.02,0.0,0.0,0.0,0.02,0.045,0.106,0.892,0.04,0.0,0.0,0.0,0.04,0.0,0.0,0.0,0.01
1765344918003803935,51978,1765344918002223768,imu_link,-0.006363621758718795,0.017079622077761362,0.8078092382889338,-0.5891621384329152,0.010000000000000002,0.0,0.0,0.0,0.010000000000000002,0.0,0.0,0.0,0.010000000000000002,0.03665191429188092,0.04363323129985824,0.5183627878423159,0.02,0.0,0.0,0.0,0.02,0.0,0.0,0.0,0.02,0.001,0.078,1.131,0.04,0.0,0.0,0.0,0.04,0.0,0.0,0.0,0.01
1765344918087427985,51979,1765344918082031626,imu_link,-0.01252691175936584,0.007809872438114165,0.7986496602130362,-0.6016151615575152,0.010000000000000002,0.0,0.0,0.0,0.010000000000000002,0.0,0.0,0.0,0.010000000000000002,-0.020943951023931956,-0.022689280275926284,0.39269908169872414,0.02,0.0,0.0,0.0,0.02,0.0,0.0,0.0,0.02,-0.004,0.03,0.9540000000000001,0.04,0.0,0.0,0.0,0.04,0.0,0.0,0.0,0.01
1765344918188581158,51980,1765344918188440128,imu_link,0.0007852873223027378,-0.003214752178440361,0.7840333899024441,-0.6207098293166743,0.010000000000000002,0.0,0.0,0.0,0.010000000000000002,0.0,0.0,0.0,0.010000000000000002,-0.019198621771937627,-0.04537856055185257,0.4537856055185257,0.02,0.0,0.0,0.0,0.02,0.0,0.0,0.0,0.02,-0.007,-0.019,1.0090000000000001,0.04,0.0,0.0,0.0,0.04,0.0,0.0,0.0,0.01
1765344918263748625,51981,1765344918257139874,imu_link,-0.004921912387035635,-0.010286235285230759,0.773896461241713,-0.6332094719914296,0.010000000000000002,0.0,0.0,0.0,0.010000000000000002,0.0,0.0,0.0,0.010000000000000002,0.019198621771937627,-0.03316125578789226,0.46774823953448036,0.02,0.0,0.0,0.0,0.02,0.0,0.0,0.0,0.02,-0.021,-0.011,1.016,0.04,0.0,0.0,0.0,0.04,0.0,0.0,0.0,0.01
